SpectraSuite Data File
++++++++++++++++++++++++++++++++++++
Date: Wed Jul 12 16:12:40 CDT 2017
User: Owner
Dark Spectrum Present: Yes
Reference Spectrum Present: Yes
Number of Sampled Component Spectra: 1
Spectrometers: USB4H04489
Integration Time (usec): 50000 (USB4H04489)
Spectra Averaged: 20 (USB4H04489)
Boxcar Smoothing: 0 (USB4H04489)
Correct for Electrical Dark: No (USB4H04489)
Strobe/Lamp Enabled: No (USB4H04489)
Correct for Detector Non-linearity: No (USB4H04489)
Correct for Stray Light: No (USB4H04489)
Number of Pixels in Processed Spectrum: 3648
>>>>>Begin Processed Spectral Data<<<<<
580.28	-1.54
580.38	-1.54
580.48	-1.54
580.59	-3.17
580.69	-13.21
580.79	8.91
580.90	-15.97
581.00	-5.73
581.11	-3.28
581.21	-3.89
581.31	-3.69
581.42	9.22
581.52	-4.40
581.62	-5.73
581.73	0.61
581.83	-12.80
581.93	14.23
582.04	24.47
582.14	1235.23
582.25	1926.93
582.35	2000.25
582.45	2048.28
582.56	2177.20
582.66	2252.36
582.76	2346.15
582.87	2457.97
582.97	2549.93
583.07	2559.96
583.18	2662.56
583.28	2669.12
583.38	2734.04
583.49	2689.60
583.59	2686.94
583.70	2609.21
583.80	2533.75
583.90	2468.62
584.01	2471.69
584.11	2442.10
584.21	2532.52
584.32	2537.43
584.42	2597.13
584.52	2616.18
584.63	2627.75
584.73	2607.17
584.83	2653.25
584.94	2669.02
585.04	2642.08
585.14	2543.07
585.25	2452.85
585.35	2343.08
585.45	2332.02
585.56	2291.88
585.66	2439.85
585.76	2397.66
585.87	2211.70
585.97	2035.27
586.07	1800.68
586.18	1608.07
586.28	1498.09
586.38	1534.54
586.49	1634.48
586.59	1734.94
586.69	1772.31
586.80	1815.11
586.90	1886.28
587.00	1923.76
587.11	1997.38
587.21	2052.68
587.31	2160.61
587.41	2260.86
587.52	2326.29
587.62	2428.58
587.72	2553.92
587.83	2638.60
587.93	2755.13
588.03	2868.08
588.14	2919.69
588.24	2914.05
588.34	3006.42
588.45	3019.83
588.55	3119.26
588.65	3081.68
588.75	2992.49
588.86	2891.02
588.96	2809.40
589.06	2710.79
589.17	2790.46
589.27	2823.53
589.37	2880.06
589.48	2948.77
589.58	2949.38
589.68	2990.24
589.78	3033.35
589.89	3015.02
589.99	3100.22
590.09	3133.70
590.20	3033.14
590.30	2927.37
590.40	2866.03
590.50	2693.80
590.61	2679.56
590.71	2703.01
590.81	2883.64
590.92	2793.74
591.02	2632.15
591.12	2393.15
591.22	2097.84
591.33	1815.93
591.43	1740.47
591.53	1686.09
591.64	1776.51
591.74	1815.73
591.84	1906.66
591.94	1971.48
592.05	1991.14
592.15	2093.84
592.25	2170.74
592.35	2220.61
592.46	2279.90
592.56	2381.38
592.66	2491.76
592.76	2647.61
592.87	2803.26
592.97	2808.89
593.07	3007.54
593.18	3018.50
593.28	3127.04
593.38	3097.35
593.48	3156.84
593.59	3136.77
593.69	3297.84
593.79	3301.02
593.89	3296.92
594.00	3213.37
594.10	3161.76
594.20	3028.33
594.30	2983.69
594.41	3000.68
594.51	3086.49
594.61	3110.97
594.71	3228.32
594.82	3284.43
594.92	3337.88
595.02	3353.45
595.12	3413.66
595.23	3439.87
595.33	3482.98
595.43	3499.06
595.53	3461.78
595.64	3324.88
595.74	3209.68
595.84	3063.35
595.94	3082.81
596.04	3163.80
596.15	3142.10
596.25	2857.12
596.35	2643.31
596.45	2275.09
596.56	1882.29
596.66	1677.59
596.76	1657.52
596.86	1709.44
596.97	1792.28
597.07	1833.03
597.17	1908.71
597.27	1940.76
597.37	2059.64
597.48	2105.93
597.58	2209.55
597.68	2201.26
597.78	2370.93
597.89	2422.85
597.99	2590.99
598.09	2670.65
598.19	2815.14
598.29	2952.04
598.40	3107.38
598.50	3295.08
598.60	3333.48
598.70	3419.70
598.80	3511.96
598.91	3586.51
599.01	3640.37
599.11	3710.20
599.21	3858.89
599.31	3727.30
599.42	3611.90
599.52	3518.00
599.62	3431.27
599.72	3303.48
599.82	3385.60
599.93	3427.07
600.03	3514.42
600.13	3616.41
600.23	3653.06
600.33	3646.61
600.44	3690.75
600.54	3730.58
600.64	3848.44
600.74	3808.61
600.84	3876.80
600.95	3736.52
601.05	3621.32
601.15	3390.51
601.25	3345.97
601.35	3214.49
601.46	3421.85
601.56	3446.83
601.66	3370.96
601.76	2991.67
601.86	2720.11
601.96	2249.08
602.07	1879.93
602.17	1747.84
602.27	1758.59
602.37	1807.23
602.47	1912.60
602.57	1926.63
602.68	1985.40
602.78	1979.05
602.88	2043.26
602.98	2093.74
603.08	2134.39
603.18	2147.19
603.29	2272.63
603.39	2302.53
603.49	2405.54
603.59	2432.88
603.69	2611.88
603.79	2676.08
603.90	2801.83
604.00	2906.07
604.10	3051.47
604.20	3109.43
604.30	3186.13
604.40	3161.14
604.51	3205.17
604.61	3262.31
604.71	3373.52
604.81	3299.07
604.91	3291.80
605.01	3111.89
605.11	3044.10
605.22	2818.93
605.32	2870.64
605.42	2876.99
605.52	2921.94
605.62	2947.23
605.72	3016.35
605.83	2998.23
605.93	3088.03
606.03	3094.17
606.13	3176.81
606.23	3166.77
606.33	3226.88
606.43	3211.52
606.53	3098.99
606.64	2850.36
606.74	2783.09
606.84	2564.36
606.94	2578.19
607.04	2666.15
607.14	2815.96
607.24	2662.67
607.35	2378.00
607.45	2093.13
607.55	1696.23
607.65	1268.31
607.75	1137.54
607.85	1110.82
607.95	1159.87
608.05	1176.46
608.16	1175.43
608.26	1208.10
608.36	1213.83
608.46	1205.02
608.56	1222.53
608.66	1211.58
608.76	1212.19
608.86	1209.53
608.96	1235.23
609.07	1229.60
609.17	1297.18
609.27	1286.94
609.37	1361.90
609.47	1415.15
609.57	1479.86
609.67	1538.43
609.77	1587.99
609.87	1593.22
609.98	1660.80
610.08	1661.93
610.18	1722.96
610.28	1718.55
610.38	1779.17
610.48	1830.47
610.58	1807.64
610.68	1702.78
610.78	1670.22
610.88	1617.69
610.98	1552.26
611.09	1614.11
611.19	1688.55
611.29	1660.70
611.39	1668.38
611.49	1668.89
611.59	1728.49
611.69	1743.74
611.79	1799.96
611.89	1810.40
611.99	1852.18
612.09	1884.64
612.20	1881.26
612.30	1808.87
612.40	1734.12
612.50	1631.92
612.60	1566.08
612.70	1536.90
612.80	1681.08
612.90	1747.22
613.00	1679.74
613.10	1550.82
613.20	1390.57
613.30	1205.43
613.40	1014.46
613.50	908.68
613.61	935.41
613.71	929.37
613.81	989.99
613.91	998.59
614.01	1041.70
614.11	1066.27
614.21	1015.49
614.31	1066.17
614.41	1043.95
614.51	1106.82
614.61	1101.60
614.71	1127.20
614.81	1187.72
614.91	1212.91
615.01	1188.54
615.11	1252.33
615.22	1274.66
615.32	1292.78
615.42	1362.72
615.52	1400.81
615.62	1421.39
615.72	1418.22
615.82	1448.53
615.92	1443.20
616.02	1504.44
616.12	1493.28
616.22	1515.19
616.32	1469.72
616.42	1452.01
616.52	1424.77
616.62	1399.38
616.72	1349.71
616.82	1310.29
616.92	1306.09
617.02	1372.04
617.12	1341.01
617.22	1391.08
617.32	1326.37
617.42	1321.55
617.52	1354.42
617.62	1351.25
617.72	1317.05
617.83	1374.80
617.93	1350.33
618.03	1355.24
618.13	1301.59
618.23	1224.58
618.33	1169.70
618.43	1189.97
618.53	1176.35
618.63	1189.15
618.73	1194.48
618.83	1172.56
618.93	1091.06
619.03	998.28
619.13	860.56
619.23	802.91
619.33	719.76
619.43	667.13
619.53	672.25
619.63	671.43
619.73	678.80
619.83	677.67
619.93	666.92
620.03	691.50
620.13	702.86
620.23	723.55
620.33	676.96
620.43	713.51
620.53	713.00
620.63	794.51
620.73	784.37
620.83	822.57
620.93	814.99
621.03	891.58
621.13	936.84
621.23	943.50
621.33	1010.06
621.43	1052.76
621.53	1081.33
621.63	1093.72
621.73	1144.00
621.83	1205.13
621.93	1279.98
622.03	1319.10
622.13	1332.10
622.23	1420.37
622.33	1438.29
622.43	1502.19
622.53	1436.45
622.63	1473.72
622.73	1465.42
622.83	1495.73
622.93	1495.32
623.03	1470.13
623.13	1446.38
623.23	1417.30
623.33	1379.82
623.42	1411.46
623.52	1458.36
623.62	1513.35
623.72	1546.42
623.82	1526.86
623.92	1470.65
624.02	1434.81
624.12	1372.04
624.22	1328.62
624.32	1360.88
624.42	1367.94
624.52	1376.75
624.62	1373.16
624.72	1278.65
624.82	1268.51
624.92	1195.60
625.02	1188.54
625.12	1200.62
625.22	1248.13
625.32	1299.64
625.42	1351.66
625.52	1304.45
625.62	1274.04
625.72	1176.66
625.82	1123.21
625.91	1061.05
626.01	1091.06
626.11	1143.48
626.21	1226.12
626.31	1249.16
626.41	1306.60
626.51	1338.25
626.61	1373.57
626.71	1386.68
626.81	1422.01
626.91	1454.47
627.01	1491.43
627.11	1527.78
627.21	1640.01
627.31	1741.39
627.41	1911.27
627.51	1966.05
627.60	1932.67
627.70	1853.51
627.80	1731.97
627.90	1545.19
628.00	1473.92
628.10	1486.83
628.20	1572.12
628.30	1652.81
628.40	1714.35
628.50	1804.26
628.60	1904.92
628.70	2001.99
628.80	2127.63
628.89	2152.62
628.99	2321.27
629.09	2396.53
629.19	2517.88
629.29	2586.69
629.39	2684.07
629.49	2732.20
629.59	2824.46
629.69	2825.38
629.79	2887.23
629.89	2848.62
629.98	2887.64
630.08	2802.13
630.18	2862.14
630.28	2882.41
630.38	2975.90
630.48	3067.75
630.58	3150.39
630.68	3281.05
630.78	3448.37
630.88	3496.39
630.98	3580.77
631.07	3630.43
631.17	3698.73
631.27	3777.79
631.37	3907.83
631.47	3945.10
631.57	3974.60
631.67	3963.95
631.77	4106.28
631.87	4188.81
631.96	4346.71
632.06	4581.92
632.16	4542.91
632.26	4269.20
632.36	3872.91
632.46	3203.23
632.56	2434.01
632.66	1855.15
632.75	1535.46
632.85	1271.69
632.95	1157.51
633.05	1158.84
633.15	1168.67
633.25	1154.24
633.35	1202.57
633.45	1175.53
633.55	1217.82
633.64	1181.68
633.74	1169.39
633.84	1179.83
633.94	1168.06
634.04	1154.75
634.14	1157.31
634.24	1156.59
634.33	1212.91
634.43	1258.27
634.53	1330.16
634.63	1388.52
634.73	1503.52
634.83	1531.37
634.93	1627.21
635.02	1715.17
635.12	1841.53
635.22	1900.82
635.32	2036.30
635.42	2104.08
635.52	2226.45
635.62	2344.62
635.71	2495.04
635.81	2547.88
635.91	2705.88
636.01	2827.94
636.11	2899.41
636.21	3003.76
636.31	3112.81
636.40	3072.47
636.50	3116.19
636.60	3081.48
636.70	3185.92
636.80	3157.66
636.90	3243.98
636.99	3105.85
637.09	3048.30
637.19	2974.27
637.29	2836.95
637.39	2681.51
637.49	2839.41
637.58	2840.23
637.68	2915.08
637.78	3053.42
637.88	3123.05
637.98	3066.53
638.08	3171.69
638.17	3059.15
638.27	3058.33
638.37	3067.24
638.47	3171.48
638.57	3211.62
638.66	3217.56
638.76	3126.63
638.86	3013.07
638.96	2820.97
639.06	2596.11
639.16	2549.82
639.25	2625.09
639.35	2706.08
639.45	2888.35
639.55	2890.50
639.65	2779.30
639.74	2448.35
639.84	2172.89
639.94	1892.63
640.04	1565.67
640.14	1398.56
640.23	1460.61
640.33	1487.34
640.43	1559.63
640.53	1525.02
640.63	1610.52
640.73	1578.88
640.82	1591.07
640.92	1624.96
641.02	1596.19
641.12	1589.02
641.21	1554.61
641.31	1555.94
641.41	1605.51
641.51	1669.09
641.61	1778.35
641.70	1837.44
641.80	1991.14
641.90	2075.00
642.00	2217.54
642.10	2351.38
642.19	2530.98
642.29	2647.00
642.39	2876.58
642.49	3029.76
642.59	3238.25
642.68	3397.78
642.78	3606.06
642.88	3876.50
642.98	4064.09
643.07	4252.40
643.17	4502.87
643.27	4695.79
643.37	4972.78
643.46	5023.26
643.56	5260.21
643.66	5299.32
643.76	5316.53
643.86	5364.55
643.95	5471.35
644.05	5533.51
644.15	5713.53
644.25	5629.46
644.34	5495.11
644.44	5289.90
644.54	5138.76
644.64	4921.37
644.73	4929.67
644.83	4891.98
644.93	5118.69
645.03	5252.63
645.12	5378.99
645.22	5497.26
645.32	5631.91
645.42	5574.37
645.51	5547.33
645.61	5455.79
645.71	5531.77
645.81	5715.88
645.90	5944.54
646.00	5914.94
646.10	5843.47
646.20	5582.46
646.29	5352.16
646.39	4926.08
646.49	4745.45
646.59	4781.70
646.68	4936.94
646.78	5256.01
646.88	5479.95
646.98	5381.65
647.07	4987.73
647.17	4369.14
647.27	3855.30
647.37	3219.71
647.46	2764.35
647.56	2644.44
647.66	2701.07
647.75	2750.11
647.85	2814.63
647.95	2893.78
648.05	2900.44
648.14	2894.80
648.24	2916.21
648.34	2926.65
648.44	2997.20
648.53	2917.74
648.63	2899.82
648.73	2885.38
648.82	2926.04
648.92	2936.28
649.02	3093.56
649.12	3215.62
649.21	3350.48
649.31	3521.38
649.41	3748.81
649.50	3941.52
649.60	4263.77
649.70	4498.26
649.80	4800.85
649.89	5055.51
649.99	5419.44
650.09	5646.76
650.18	6052.36
650.28	6335.90
650.38	6741.91
650.47	7136.15
650.57	7596.02
650.67	7874.13
650.77	8279.02
650.86	8583.86
650.96	8988.13
651.06	9127.39
651.15	9415.84
651.25	9422.50
651.35	9603.34
651.44	9667.03
651.54	10001.15
651.64	9865.27
651.73	10177.48
651.83	9911.45
651.93	9793.59
652.03	9216.68
652.12	8847.22
652.22	8576.69
652.32	8590.31
652.41	8650.93
652.51	9038.40
652.61	9244.63
652.70	9559.10
652.80	9610.61
652.90	9886.06
652.99	9761.75
653.09	9864.45
653.19	9591.56
653.28	9801.48
653.38	9977.60
653.48	10316.54
653.57	10483.55
653.67	10549.91
653.77	10076.11
653.86	9469.81
653.96	8907.03
654.06	8323.56
654.15	8136.99
654.25	8402.92
654.35	8922.28
654.44	9438.88
654.54	9650.95
654.64	9232.35
654.73	8141.70
654.83	7084.85
654.93	5817.05
655.02	4785.18
655.12	4060.81
655.22	3987.09
655.31	4103.82
655.41	4198.64
655.51	4166.29
655.60	4329.41
655.70	4338.72
655.79	4302.27
655.89	4251.17
655.99	4289.88
656.08	4255.78
656.18	4198.13
656.28	4070.44
656.37	4118.36
656.47	3992.11
656.57	4132.60
656.66	4148.78
656.76	4430.06
656.85	4637.01
656.95	4866.69
657.05	5138.46
657.14	5439.10
657.24	5736.16
657.34	6173.40
657.43	6497.59
657.53	6896.94
657.63	7208.03
657.72	7691.45
657.82	8095.01
657.91	8504.19
658.01	9045.37
658.11	9610.50
658.20	10203.80
658.30	10647.08
658.39	11194.20
658.49	11829.48
658.59	12205.07
658.68	12770.52
658.78	13288.14
658.88	13548.64
658.97	13494.48
659.07	13802.29
659.16	13812.22
659.26	14165.49
659.36	14232.87
659.45	14476.27
659.55	14400.70
659.64	14333.12
659.74	13613.16
659.84	13215.64
659.93	12263.24
660.03	12102.37
660.12	11911.09
660.22	12277.47
660.32	12521.59
660.41	13034.09
660.51	13318.04
660.60	13595.44
660.70	13743.20
660.80	13996.43
660.89	13736.65
660.99	13742.59
661.08	13695.07
661.18	14153.92
661.28	14402.65
661.37	14796.57
661.47	14815.31
661.56	14430.91
661.66	13725.28
661.75	12757.41
661.85	11727.80
661.95	11247.34
662.04	11330.80
662.14	11882.52
662.23	12734.27
662.33	13289.88
662.43	13094.51
662.52	12178.25
662.62	10642.88
662.71	9122.68
662.81	7277.56
662.90	5847.36
663.00	5124.02
663.10	5120.02
663.19	5145.73
663.29	5350.83
663.38	5334.86
663.48	5506.27
663.57	5457.32
663.67	5462.44
663.77	5335.57
663.86	5236.66
663.96	5156.27
664.05	5055.51
664.15	4908.88
664.24	4814.77
664.34	4581.20
664.43	4480.03
664.53	4442.66
664.63	4499.39
664.72	4581.41
664.82	4836.38
664.91	4946.05
665.01	5257.34
665.10	5430.91
665.20	5860.47
665.29	6085.23
665.39	6525.24
665.48	6760.96
665.58	7155.91
665.68	7448.87
665.77	7857.75
665.87	8212.76
665.96	8698.34
666.06	9113.56
666.15	9816.32
666.25	10081.02
666.34	10499.12
666.44	10946.80
666.53	11607.99
666.63	11911.60
666.72	12323.14
666.82	12717.99
666.91	13063.99
667.01	13029.89
667.11	13187.28
667.20	13236.02
667.30	13387.26
667.39	13596.46
667.49	13909.09
667.58	13713.71
667.68	13670.19
667.77	12961.59
667.87	12570.84
667.96	11698.82
668.06	11370.12
668.15	11256.35
668.25	11433.40
668.34	11600.82
668.44	11899.82
668.53	12068.78
668.63	12408.23
668.72	12599.21
668.82	12694.95
668.91	12797.24
669.01	12690.14
669.10	12428.92
669.20	12860.83
669.29	12946.54
669.39	13286.71
669.48	13561.34
669.58	13787.74
669.67	13122.36
669.77	12396.25
669.86	11500.98
669.96	10818.39
670.05	10142.26
670.15	10497.27
670.24	10937.07
670.34	11832.45
670.43	12289.76
670.53	12550.87
670.62	11643.11
670.72	10383.10
670.81	8741.65
670.91	7191.44
671.00	5672.36
671.10	5061.15
671.19	4841.91
671.29	4930.89
671.38	5073.94
671.48	5181.16
671.57	5263.69
671.67	5363.73
671.76	5390.36
671.86	5535.35
671.95	5352.98
672.04	5460.91
672.14	5475.35
672.23	5423.74
672.33	5326.56
672.42	5339.77
672.52	5319.60
672.61	5387.39
672.71	5351.34
672.80	5556.75
672.90	5726.02
672.99	5986.01
673.09	6167.25
673.18	6515.00
673.28	6717.95
673.37	7233.32
673.46	7613.73
673.56	8119.89
673.65	8441.62
673.75	8948.09
673.84	9267.78
673.94	9952.72
674.03	10625.37
674.13	11452.75
674.22	12451.04
674.32	13652.48
674.41	14021.32
674.50	14190.38
674.60	13796.76
674.69	13306.47
674.79	12275.12
674.88	11412.41
674.98	10674.63
675.07	10607.56
675.17	10417.40
675.26	10402.35
675.35	10343.78
675.45	10535.57
675.54	10457.34
675.64	10767.91
675.73	10802.22
675.83	11013.26
675.92	10998.41
676.01	10697.77
676.11	10161.30
676.20	9599.85
676.30	9092.47
676.39	8883.27
676.49	8810.05
676.58	8953.62
676.67	9095.95
676.77	9465.40
676.86	9525.82
676.96	9725.29
677.05	9842.03
677.15	10042.52
677.24	10097.71
677.33	10082.87
677.43	10012.93
677.52	10153.32
677.62	10317.77
677.71	10545.81
677.80	10752.86
677.90	11085.96
677.99	10519.90
678.09	10055.63
678.18	9399.15
678.27	8615.19
678.37	7961.89
678.46	7946.22
678.56	8248.19
678.65	8783.84
678.74	9362.49
678.84	9909.40
678.93	9495.30
679.03	8857.67
679.12	7650.49
679.21	6299.35
679.31	4863.41
679.40	3814.24
679.50	3316.38
679.59	3195.75
679.68	3109.43
679.78	3201.08
679.87	3168.51
679.97	3222.89
680.06	3158.99
680.15	3174.45
680.25	3080.86
680.34	2995.15
680.44	2867.98
680.53	2803.26
680.62	2638.09
680.72	2499.65
680.81	2353.53
680.90	2223.99
681.00	2013.97
681.09	1984.38
681.19	1823.41
681.28	1839.08
681.37	1837.03
681.47	1871.54
681.56	1912.80
681.65	1966.05
681.75	1996.05
681.84	2095.48
681.94	2202.59
682.03	2313.49
682.12	2357.11
682.22	2480.19
682.31	2555.05
682.40	2646.18
682.50	2753.80
682.59	2933.00
682.68	3046.97
682.78	3183.16
682.87	3321.91
682.96	3487.59
683.06	3598.38
683.15	3772.15
683.25	3978.69
683.34	4106.28
683.43	4180.52
683.53	4385.01
683.62	4479.93
683.71	4567.69
683.81	4592.06
683.90	4691.28
683.99	4611.51
684.09	4732.96
684.18	4810.06
684.27	4873.55
684.37	4931.82
684.46	4946.66
684.55	4860.55
684.65	4642.54
684.74	4426.38
684.83	4206.84
684.93	3976.95
685.02	3949.41
685.11	3909.06
685.21	4063.99
685.30	4109.97
685.39	4276.16
685.49	4335.35
685.58	4395.76
685.67	4409.69
685.77	4516.49
685.86	4575.47
685.95	4524.47
686.05	4480.44
686.14	4601.48
686.23	4558.98
686.33	4682.68
686.42	4772.28
686.51	4839.76
686.61	4750.98
686.70	4521.61
686.79	4273.29
686.88	3966.10
686.98	3649.07
687.07	3533.05
687.16	3573.40
687.26	3797.34
687.35	4042.28
687.44	4370.57
687.54	4338.42
687.63	4213.70
687.72	3741.74
687.82	3210.70
687.91	2548.70
688.00	1983.46
688.09	1647.08
688.19	1499.42
688.28	1442.18
688.37	1484.27
688.47	1390.67
688.56	1393.13
688.65	1381.15
688.74	1341.73
688.84	1323.91
688.93	1295.34
689.02	1258.68
689.12	1256.63
689.21	1162.12
689.30	1165.50
689.39	1066.38
689.49	1044.57
689.58	957.22
689.67	886.98
689.77	784.78
689.86	744.95
689.95	702.45
690.04	645.72
690.14	587.05
690.23	605.99
690.32	580.91
690.42	591.86
690.51	590.74
690.60	578.14
690.69	577.42
690.79	545.99
690.88	567.49
690.97	534.52
691.06	520.49
691.16	535.54
691.25	504.41
691.34	496.12
691.43	503.60
691.53	532.57
691.62	531.24
691.71	530.83
691.80	523.87
691.90	501.85
691.99	508.82
692.08	529.40
692.18	534.62
692.27	538.41
692.36	511.17
692.45	518.65
692.55	509.13
692.64	523.97
692.73	520.29
692.82	514.96
692.91	494.48
693.01	501.45
693.10	512.30
693.19	509.02
693.28	499.60
693.38	502.57
693.47	492.74
693.56	517.32
693.65	484.14
693.75	514.96
693.84	509.53
693.93	501.96
694.02	524.08
694.12	526.33
694.21	482.19
694.30	491.92
694.39	499.91
694.48	509.84
694.58	518.55
694.67	487.21
694.76	477.07
694.85	484.04
694.95	484.45
695.04	475.54
695.13	466.02
695.22	468.17
695.31	493.25
695.41	462.02
695.50	466.22
695.59	458.74
695.68	417.68
695.78	452.40
695.87	476.15
695.96	470.21
696.05	443.59
696.14	468.98
696.24	457.31
696.33	479.53
696.42	469.50
696.51	465.50
696.60	450.55
696.70	418.60
696.79	404.58
696.88	418.20
696.97	410.52
697.06	423.42
697.16	419.01
697.25	401.91
697.34	417.48
697.43	435.50
697.52	444.82
697.62	461.41
697.71	476.97
697.80	482.30
697.89	493.56
697.98	498.17
698.08	480.25
698.17	507.28
698.26	516.09
698.35	508.20
698.44	507.08
698.53	530.01
698.63	517.42
698.72	552.23
698.81	537.90
698.90	553.57
698.99	563.09
699.08	578.14
699.18	589.51
699.27	593.19
699.36	598.52
699.45	630.26
699.54	658.11
699.64	641.94
699.73	695.90
699.82	724.67
699.91	754.98
700.00	786.42
700.09	823.18
700.19	804.85
700.28	771.98
700.37	715.15
700.46	731.23
700.55	670.40
700.64	581.93
700.73	603.23
700.83	561.14
700.92	585.72
701.01	572.71
701.10	568.62
701.19	551.31
701.28	537.39
701.38	563.09
701.47	557.15
701.56	563.19
701.65	588.48
701.74	587.26
701.83	596.27
701.92	581.42
702.02	589.30
702.11	581.52
702.20	595.86
702.29	584.29
702.38	611.93
702.47	611.11
702.56	646.44
702.66	645.52
702.75	652.38
702.84	655.15
702.93	663.34
703.02	638.04
703.11	639.48
703.20	625.86
703.29	653.40
703.39	636.61
703.48	669.38
703.57	691.39
703.66	758.16
703.75	732.15
703.84	801.47
703.93	789.59
704.02	828.81
704.12	867.31
704.21	908.17
704.30	963.36
704.39	1004.53
704.48	1042.83
704.57	1096.79
704.66	1121.67
704.75	1138.57
704.84	1136.73
704.94	1132.01
705.03	1166.73
705.12	1160.28
705.21	1191.51
705.30	1219.97
705.39	1246.39
705.48	1312.24
705.57	1326.98
705.66	1386.68
705.75	1436.75
705.85	1526.25
705.94	1551.44
706.03	1551.54
706.12	1557.99
706.21	1617.18
706.30	1654.25
706.39	1694.18
706.48	1783.99
706.57	1834.98
706.66	1893.04
706.75	2030.97
706.85	2120.26
706.94	2256.76
707.03	2457.77
707.12	2700.35
707.21	2971.50
707.30	3201.79
707.39	3241.83
707.48	3060.89
707.57	2860.09
707.66	2462.48
707.75	2055.44
707.84	1641.34
707.93	1352.58
708.03	1200.11
708.12	1059.31
708.21	1032.89
708.30	990.60
708.39	1003.10
708.48	987.63
708.57	1034.22
708.66	1037.09
708.75	1045.28
708.84	1048.76
708.93	1104.67
709.02	1080.51
709.11	1078.15
709.20	1069.14
709.29	1110.41
709.39	1090.85
709.48	1141.64
709.57	1156.08
709.66	1209.53
709.75	1253.05
709.84	1249.26
709.93	1246.09
710.02	1304.35
710.11	1310.90
710.20	1370.09
710.29	1370.19
710.38	1406.85
710.47	1433.17
710.56	1509.46
710.65	1534.54
710.74	1587.28
710.83	1617.38
710.92	1687.32
711.01	1752.04
711.10	1813.58
711.19	1894.27
711.28	1976.19
711.38	1976.09
711.47	2072.13
711.56	2131.83
711.65	2222.66
711.74	2326.08
711.83	2409.44
711.92	2482.24
712.01	2531.80
712.10	2607.58
712.19	2724.00
712.28	2803.05
712.37	2915.18
712.46	3003.35
712.55	3107.59
712.64	3137.69
712.73	3232.31
712.82	3373.11
712.91	3480.93
713.00	3527.93
713.09	3563.16
713.18	3590.91
713.27	3605.45
713.36	3597.36
713.45	3661.05
713.54	3643.23
713.63	3742.46
713.72	3882.23
713.81	3994.26
713.90	4061.84
713.99	4270.32
714.08	4372.41
714.17	4548.85
714.26	4656.26
714.35	4843.04
714.44	4907.96
714.53	5036.98
714.62	5170.30
714.71	5389.43
714.80	5662.43
714.89	6017.85
714.98	6438.20
715.07	7139.63
715.16	7736.20
715.25	8622.05
715.34	9005.12
715.43	9076.50
715.52	8560.00
715.61	7690.84
715.70	6589.85
715.79	5336.70
715.88	4036.96
715.97	3218.18
716.06	2734.76
716.15	2479.17
716.24	2357.42
716.33	2318.92
716.42	2260.04
716.51	2173.51
716.60	1977.52
716.69	1796.27
716.78	1581.44
716.87	1391.59
716.96	1199.70
717.05	1154.44
717.13	1093.00
717.22	1114.91
717.31	1071.39
717.40	1100.99
717.49	1076.11
717.58	1102.63
717.67	1077.85
717.76	1095.87
717.85	1095.66
717.94	1078.77
718.03	1054.91
718.12	1007.81
718.21	983.54
718.30	969.51
718.39	927.63
718.48	872.03
718.57	917.90
718.66	895.78
718.75	930.49
718.84	929.88
718.93	946.16
719.02	969.41
719.10	947.90
719.19	1005.86
719.28	984.56
719.37	1047.23
719.46	1086.14
719.55	1157.10
719.64	1170.72
719.73	1190.79
719.82	1219.46
719.91	1274.55
720.00	1305.68
720.09	1327.70
720.18	1395.28
720.27	1512.32
720.36	1536.18
720.44	1598.34
720.53	1614.11
720.62	1706.67
720.71	1746.10
720.80	1770.37
720.89	1911.68
720.98	1990.32
721.07	2057.80
721.16	2168.08
721.25	2245.09
721.34	2278.16
721.43	2357.11
721.52	2439.44
721.60	2572.66
721.69	2758.31
721.78	2813.60
721.87	3006.83
721.96	3113.83
722.05	3259.24
722.14	3343.51
722.23	3476.43
722.32	3576.16
722.41	3916.43
722.50	4100.34
722.58	4214.11
722.67	4285.37
722.76	4524.88
722.85	4602.81
722.94	4790.20
723.03	4795.01
723.12	4941.44
723.21	4977.38
723.30	5075.69
723.38	5025.00
723.47	5010.77
723.56	5101.90
723.65	5311.20
723.74	5299.73
723.83	5407.25
723.92	5251.30
724.01	5222.12
724.10	4904.27
724.18	4707.56
724.27	4446.45
724.36	4460.37
724.45	4365.76
724.54	4473.99
724.63	4460.37
724.72	4668.86
724.81	4745.25
724.89	4981.27
724.98	5047.53
725.07	5225.19
725.16	5289.29
725.25	5269.12
725.34	5097.29
725.43	5013.12
725.52	4841.50
725.60	4821.43
725.69	4788.15
725.78	5017.52
725.87	5294.61
725.96	5640.11
726.05	5754.28
726.14	5736.05
726.22	5331.58
726.31	5025.00
726.40	4583.87
726.49	4244.52
726.58	3982.79
726.67	4055.18
726.76	4070.13
726.84	4311.38
726.93	4448.29
727.02	4724.87
727.11	5038.52
727.20	5222.12
727.29	5282.33
727.38	5090.43
727.46	4705.31
727.55	4224.24
727.64	3636.89
727.73	3053.93
727.82	2634.20
727.91	2437.08
727.99	2350.45
728.08	2382.20
728.17	2434.83
728.26	2521.46
728.35	2533.34
728.44	2564.67
728.52	2567.54
728.61	2593.55
728.70	2570.20
728.79	2561.50
728.88	2496.99
728.97	2504.87
729.05	2374.52
729.14	2270.99
729.23	2125.07
729.32	2015.30
729.41	1927.45
729.49	1847.68
729.58	1822.18
729.67	1856.89
729.76	1851.36
729.85	1854.64
729.94	1828.02
730.02	1849.32
730.11	1867.75
730.20	1966.87
730.29	1939.12
730.38	2025.44
730.46	2108.28
730.55	2230.34
730.64	2263.01
730.73	2291.17
730.82	2287.48
730.90	2362.64
730.99	2425.92
731.08	2496.37
731.17	2498.01
731.26	2649.97
731.34	2771.31
731.43	2915.39
731.52	2934.64
731.61	3002.83
731.70	3095.20
731.78	3202.10
731.87	3208.76
731.96	3419.29
732.05	3612.31
732.13	3819.36
732.22	3916.33
732.31	4077.92
732.40	4168.44
732.49	4278.31
732.57	4302.78
732.66	4633.73
732.75	4885.74
732.84	5097.70
732.93	5210.44
733.01	5536.07
733.10	5678.71
733.19	5937.68
733.28	5995.22
733.36	6237.70
733.45	6552.78
733.54	7080.14
733.63	7264.25
733.71	7508.98
733.80	7712.96
733.89	8100.13
733.98	8264.27
734.07	8533.27
734.15	8682.16
734.24	8980.65
734.33	9151.35
734.42	9248.22
734.50	9004.92
734.59	9065.64
734.68	8898.94
734.77	9174.80
734.85	9262.25
734.94	9553.47
735.03	9391.27
735.12	9364.85
735.20	8812.61
735.29	8504.19
735.38	7767.23
735.47	7416.72
735.55	7116.79
735.64	7113.82
735.73	7061.91
735.82	7310.94
735.90	7547.38
735.99	7816.28
736.08	7997.83
736.17	8263.55
736.25	8413.98
736.34	8812.61
736.43	8852.14
736.51	8792.44
736.60	8490.98
736.69	8248.60
736.78	7935.67
736.86	7946.22
736.95	7817.92
737.04	8130.44
737.13	8725.88
737.21	9407.24
737.30	9668.67
737.39	9593.81
737.47	9142.54
737.56	8441.62
737.65	7689.51
737.74	6949.37
737.82	6382.60
737.91	6231.25
738.00	6315.94
738.08	6598.56
738.17	6832.64
738.26	7267.22
738.35	7724.84
738.43	8334.31
738.52	8729.57
738.61	8882.35
738.69	8438.96
738.78	7741.42
738.87	6679.04
738.96	5656.39
739.04	4492.32
739.13	3715.02
739.22	3299.99
739.30	3219.92
739.39	3163.39
739.48	3248.69
739.56	3294.98
739.65	3402.19
739.74	3441.92
739.82	3521.07
739.91	3478.17
740.00	3535.51
740.09	3469.57
740.17	3476.22
740.26	3455.54
740.35	3470.18
740.43	3360.10
740.52	3263.03
740.61	3074.31
740.69	2945.18
740.78	2755.54
740.87	2624.16
740.95	2558.32
741.04	2591.29
741.13	2604.30
741.21	2639.01
741.30	2686.94
741.39	2742.95
741.47	2818.72
741.56	2994.13
741.65	3132.57
741.73	3344.13
741.82	3618.45
741.91	3938.76
741.99	4223.42
742.08	4405.90
742.17	4377.53
742.25	4296.54
742.34	4233.66
742.43	4156.97
742.51	3973.67
742.60	3927.39
742.69	3907.42
742.77	4074.13
742.86	4248.61
742.95	4343.02
743.03	4339.65
743.12	4510.65
743.21	4615.20
743.29	4785.80
743.38	4897.61
743.47	5233.89
743.55	5520.09
743.64	5807.63
743.73	6074.48
743.81	6251.63
743.90	6436.66
743.98	6517.35
744.07	6713.86
744.16	7071.74
744.24	7583.94
744.33	7854.06
744.42	8133.92
744.50	8559.49
744.59	8739.91
744.68	9069.33
744.76	9056.12
744.85	9308.33
744.93	9711.57
745.02	10364.46
745.11	10915.06
745.19	11534.98
745.28	11674.34
745.37	12087.83
745.45	12381.61
745.54	12843.94
745.62	13204.48
745.71	13413.58
745.80	13557.86
745.88	14249.66
745.97	14242.60
746.05	14295.44
746.14	14021.52
746.23	14174.20
746.31	14408.89
746.40	14872.76
746.49	15068.24
746.57	15709.76
746.66	15778.58
746.74	15571.32
746.83	14923.34
746.92	14237.89
747.00	13265.00
747.09	12587.43
747.17	12002.63
747.26	11842.38
747.35	11748.48
747.43	11957.17
747.52	12248.18
747.60	12687.58
747.69	12981.56
747.78	13398.53
747.86	13575.98
747.95	14181.67
748.03	14365.99
748.12	14817.36
748.20	14514.57
748.29	14220.38
748.38	13757.74
748.46	13395.35
748.55	13026.00
748.63	13196.39
748.72	13451.47
748.81	14661.31
748.89	15743.96
748.98	16634.01
749.06	16453.18
749.15	16204.86
749.23	14931.64
749.32	14105.08
749.41	12627.67
749.49	11575.22
749.58	10861.50
749.66	10973.53
749.75	11123.44
749.83	11761.89
749.92	12137.59
750.01	13064.40
750.09	13849.18
750.18	15016.32
750.26	15840.32
750.35	16252.37
750.43	15449.77
750.52	14516.82
750.60	13017.30
750.69	11647.82
750.78	9957.74
750.86	9042.50
750.95	8647.14
751.03	8561.12
751.12	8204.98
751.20	7791.39
751.29	7275.72
751.37	6722.36
751.46	6093.53
751.55	5651.16
751.63	5186.58
751.72	4967.04
751.80	4772.79
751.89	4671.11
751.97	4546.08
752.06	4454.84
752.14	4341.18
752.23	4160.65
752.31	3979.41
752.40	3747.68
752.48	3422.46
752.57	3096.22
752.65	2760.05
752.74	2543.58
752.83	2384.86
752.91	2307.96
753.00	2335.40
753.08	2309.19
753.17	2306.52
753.25	2282.56
753.34	2307.45
753.42	2367.76
753.51	2400.01
753.59	2510.91
753.68	2563.03
753.76	2748.89
753.85	2859.17
753.93	3004.47
754.02	3031.20
754.10	3067.24
754.19	3127.66
754.27	3183.06
754.36	3218.59
754.44	3331.43
754.53	3376.59
754.61	3576.57
754.70	3855.71
754.78	4145.09
754.87	4158.20
754.95	4294.08
755.04	4277.18
755.12	4511.98
755.21	4595.44
755.29	4747.60
755.38	4842.52
755.46	5278.43
755.55	5596.89
755.63	5872.55
755.72	6035.88
755.80	6200.53
755.89	6284.60
755.97	6396.22
756.06	6611.66
756.14	7071.74
756.23	7455.73
756.31	7911.82
756.40	8057.43
756.48	8678.68
756.57	8839.03
756.65	9142.34
756.74	9098.51
756.82	9569.85
756.91	9736.66
756.99	10451.91
757.08	11174.54
757.16	11768.24
757.25	11998.74
757.33	12536.85
757.41	12765.50
757.50	13099.12
757.58	13449.52
757.67	13855.63
757.75	14011.59
757.84	14505.05
757.92	14892.42
758.01	15338.67
758.09	14905.53
758.18	14797.70
758.26	14926.72
758.35	15269.25
758.43	15445.27
758.51	16166.46
758.60	16609.13
758.68	17343.33
758.77	17013.09
758.85	16814.54
758.94	15943.85
759.02	15033.83
759.11	14037.39
759.19	13502.77
759.27	13020.88
759.36	13142.12
759.44	13258.65
759.53	13860.55
759.61	13884.00
759.70	14380.63
759.78	14743.22
759.87	15150.98
759.95	15393.25
760.03	15931.25
760.12	16130.42
760.20	16959.43
760.29	16969.57
760.37	17150.10
760.46	16793.75
760.54	16695.55
760.62	16852.73
760.71	17372.10
760.79	17787.02
760.88	18791.85
760.96	19795.05
761.05	21041.65
761.13	21045.54
761.21	20709.57
761.30	18697.75
761.38	16960.25
761.47	14880.85
761.55	12981.56
761.64	11212.94
761.72	10304.87
761.80	9802.91
761.89	9995.21
761.97	10253.87
762.06	10990.01
762.14	11473.13
762.22	12370.24
762.31	13347.12
762.39	14772.61
762.48	15535.48
762.56	15623.75
762.64	14612.56
762.73	13275.55
762.81	11294.85
762.90	9369.76
762.98	7126.21
763.06	5454.97
763.15	4685.45
763.23	4421.67
763.32	4307.80
763.40	4302.58
763.48	4380.71
763.57	4467.23
763.65	4537.58
763.74	4675.00
763.82	4734.29
763.90	4692.51
763.99	4707.36
764.07	4621.55
764.15	4517.61
764.24	4467.85
764.32	4395.15
764.41	4275.95
764.49	4209.80
764.57	4103.41
764.66	3849.26
764.74	3613.85
764.82	3260.78
764.91	2963.31
764.99	2594.26
765.08	2387.42
765.16	2194.71
765.24	2133.06
765.33	2122.51
765.41	2114.12
765.49	2057.90
765.58	2047.25
765.66	2017.86
765.74	2071.42
765.83	2074.39
765.91	2159.48
766.00	2225.12
766.08	2326.80
766.16	2397.05
766.25	2510.91
766.33	2479.58
766.41	2435.44
766.50	2451.62
766.58	2504.15
766.66	2542.04
766.75	2586.17
766.83	2637.07
766.91	2752.78
767.00	2866.75
767.08	3068.27
767.16	3226.88
767.25	3305.73
767.33	3280.95
767.41	3287.40
767.50	3366.14
767.58	3515.65
767.66	3513.50
767.75	3702.11
767.83	3835.85
767.91	4171.51
768.00	4341.39
768.08	4491.40
768.16	4595.95
768.25	4665.58
768.33	4651.24
768.41	4813.65
768.50	4886.15
768.58	5271.37
768.66	5483.74
768.75	5774.66
768.83	5962.46
768.91	6317.16
769.00	6467.89
769.08	6613.81
769.16	6645.15
769.25	6856.60
769.33	7045.42
769.41	7342.58
769.50	7809.62
769.58	8402.30
769.66	8654.82
769.74	8979.01
769.83	9072.09
769.91	9525.10
769.99	9592.28
770.08	9924.35
770.16	10124.34
770.24	10585.03
770.33	10733.51
770.41	11118.83
770.49	11209.86
770.58	11119.24
770.66	10569.16
770.74	10710.88
770.82	10840.72
770.91	10981.41
770.99	11107.06
771.07	11767.83
771.16	12347.20
771.24	12641.80
771.32	12352.43
771.40	12070.01
771.49	11361.93
771.57	10599.77
771.65	9746.39
771.74	9193.95
771.82	8615.91
771.90	8521.09
771.98	8526.31
772.07	9003.08
772.15	9011.88
772.23	9143.36
772.31	9479.23
772.40	9785.81
772.48	9899.27
772.56	10070.89
772.65	10239.84
772.73	10569.26
772.81	10735.86
772.89	11019.92
772.98	10746.31
773.06	10530.55
773.14	10122.39
773.22	9919.34
773.31	9636.20
773.39	9496.94
773.47	9577.63
773.55	10515.71
773.64	11458.79
773.72	12203.13
773.80	12828.89
773.88	12572.89
773.97	11904.74
774.05	11154.57
774.13	9920.98
774.21	8893.10
774.30	7894.82
774.38	7201.48
774.46	7083.82
774.54	7293.74
774.63	7522.91
774.71	7853.35
774.79	8293.76
774.87	9075.06
774.96	9796.36
775.04	10978.96
775.12	11800.50
775.20	12099.91
775.29	11443.54
775.37	10546.73
775.45	9202.34
775.53	7574.00
775.61	5794.73
775.70	4264.59
775.78	3438.03
775.86	3059.05
775.94	2846.47
776.03	2815.65
776.11	2867.77
776.19	2978.67
776.27	2990.14
776.36	3124.59
776.44	3211.83
776.52	3338.91
776.60	3344.95
776.68	3419.39
776.77	3386.62
776.85	3395.53
776.93	3168.31
777.01	3081.58
777.09	2913.85
777.18	2829.47
777.26	2662.26
777.34	2569.89
777.42	2407.90
777.50	2229.52
777.59	1979.05
777.67	1740.47
777.75	1500.55
777.83	1310.50
777.91	1130.58
778.00	1057.98
778.08	1051.73
778.16	1040.16
778.24	1030.74
778.32	1069.35
778.41	1106.11
778.49	1155.67
778.57	1258.07
778.65	1324.93
778.73	1413.30
778.82	1429.38
778.90	1476.69
778.98	1445.15
779.06	1421.70
779.14	1365.48
779.22	1275.17
779.31	1258.78
779.39	1176.15
779.47	1171.95
779.55	1161.10
779.63	1158.02
779.72	1124.74
779.80	1211.48
779.88	1201.13
779.96	1234.52
780.04	1277.22
780.12	1324.11
780.21	1313.57
780.29	1370.19
780.37	1437.88
780.45	1472.39
780.53	1493.58
780.61	1548.98
780.70	1580.72
780.78	1606.84
780.86	1699.40
780.94	1764.94
781.02	1714.05
781.10	1730.43
781.18	1720.60
781.27	1693.06
781.35	1682.82
781.43	1656.29
781.51	1640.42
781.59	1607.04
781.67	1602.95
781.75	1605.51
781.84	1514.06
781.92	1516.73
782.00	1483.45
782.08	1496.55
782.16	1559.22
782.24	1752.34
782.32	1974.55
782.41	2368.07
782.49	2790.36
782.57	3452.47
782.65	4091.94
782.73	4757.53
782.81	5067.80
782.89	5036.77
782.98	4722.62
783.06	4305.24
783.14	3743.69
783.22	3013.28
783.30	2346.26
783.38	2020.94
783.46	1763.51
783.54	1691.83
783.63	1576.42
783.71	1561.17
783.79	1505.77
783.87	1505.77
783.95	1522.05
784.03	1561.17
784.11	1531.98
784.19	1609.09
784.27	1590.04
784.36	1650.56
784.44	1626.29
784.52	1631.72
784.60	1578.06
784.68	1611.34
784.76	1600.69
784.84	1558.91
784.92	1518.06
785.00	1588.71
785.08	1635.00
785.17	1645.13
785.25	1673.70
785.33	1699.20
785.41	1664.49
785.49	1639.09
785.57	1598.95
785.65	1567.31
785.73	1573.35
785.81	1620.86
785.89	1616.15
785.98	1676.98
786.06	1699.51
786.14	1700.43
786.22	1704.01
786.30	1706.78
786.38	1698.99
786.46	1685.99
786.54	1703.50
786.62	1750.19
786.70	1764.12
786.78	1798.73
786.86	1799.96
786.94	1781.84
787.03	1779.38
787.11	1722.14
787.19	1677.39
787.27	1642.06
787.35	1642.16
787.43	1706.47
787.51	1700.84
787.59	1851.36
787.67	1916.90
787.75	2058.00
787.83	2090.26
787.91	2105.41
787.99	2172.69
788.07	2247.75
788.15	2255.33
788.23	2310.72
788.32	2368.48
788.40	2394.08
788.48	2435.75
788.56	2308.37
788.64	2173.82
788.72	2001.38
788.80	1789.21
788.88	1585.64
788.96	1411.97
789.04	1333.02
789.12	1253.05
789.20	1244.86
789.28	1238.82
789.36	1285.31
789.44	1309.78
789.52	1281.31
789.60	1237.89
789.68	1134.98
789.76	1051.43
789.84	923.02
789.92	828.30
790.00	771.37
790.08	694.16
790.16	680.23
790.25	648.39
790.33	618.49
790.41	619.20
790.49	598.72
790.57	578.76
790.65	578.76
790.73	592.58
790.81	568.62
790.89	580.09
790.97	625.14
791.05	633.44
791.13	626.17
791.21	627.50
791.29	603.33
791.37	579.68
791.45	520.18
791.53	479.53
791.61	405.70
791.69	391.98
791.77	383.07
791.85	346.82
791.93	354.40
792.01	331.16
792.09	370.68
792.17	337.81
792.25	343.03
792.33	368.94
792.41	365.56
792.49	405.70
792.57	387.17
792.65	387.99
792.73	388.91
792.81	363.00
792.89	342.93
792.97	333.31
793.05	313.13
793.13	354.91
793.21	377.44
793.29	350.00
793.37	365.05
793.45	372.94
793.53	377.13
793.61	384.10
793.69	377.75
793.77	404.47
793.85	409.49
793.93	424.95
794.01	411.44
794.09	401.81
794.16	421.98
794.24	398.23
794.32	412.67
794.40	425.16
794.48	438.78
794.56	464.68
794.64	460.08
794.72	462.12
794.80	461.61
794.88	512.09
794.96	534.72
795.04	535.85
795.12	562.47
795.20	585.00
795.28	575.48
795.36	557.87
795.44	580.19
795.52	561.96
795.60	610.81
795.68	626.47
795.76	683.20
795.84	664.36
795.92	690.88
796.00	702.76
796.07	713.21
796.15	729.18
796.23	740.75
796.31	748.33
796.39	803.42
796.47	821.95
796.55	881.24
796.63	874.38
796.71	897.73
796.79	930.29
796.87	964.90
796.95	975.55
797.03	1013.03
797.11	1043.44
797.19	1075.29
797.27	1153.52
797.34	1223.35
797.42	1275.17
797.50	1309.78
797.58	1358.01
797.66	1358.01
797.74	1376.34
797.82	1378.59
797.90	1410.03
797.98	1428.05
798.06	1463.07
798.14	1548.67
798.22	1608.47
798.29	1662.23
798.37	1721.73
798.45	1769.04
798.53	1791.67
798.61	1800.98
798.69	1871.13
798.77	1917.10
798.85	1959.80
798.93	2050.84
799.01	2135.72
799.09	2283.69
799.16	2544.50
799.24	2839.92
799.32	3102.67
799.40	3332.66
799.48	3505.41
799.56	3585.69
799.64	3390.82
799.72	3054.34
799.80	2682.84
799.88	2260.86
799.95	1849.01
800.03	1556.46
800.11	1316.74
800.19	1261.55
800.27	1153.83
800.35	1152.70
800.43	1093.62
800.51	1077.33
800.58	1023.68
800.66	1000.54
800.74	935.61
800.82	947.08
800.90	880.52
800.98	881.75
801.06	845.91
801.14	850.01
801.21	859.02
801.29	887.38
801.37	917.18
801.45	961.21
801.53	958.96
801.61	997.87
801.69	1046.41
801.77	1060.85
801.84	1057.26
801.92	1033.10
802.00	996.75
802.08	975.96
802.16	936.84
802.24	884.72
802.32	844.58
802.39	825.23
802.47	867.21
802.55	896.29
802.63	936.02
802.71	1021.12
802.79	1057.37
802.87	1105.49
802.94	1095.05
803.02	1092.80
803.10	1070.27
803.18	996.44
803.26	926.71
803.34	871.00
803.41	842.53
803.49	831.17
803.57	774.95
803.65	807.92
803.73	804.13
803.81	828.20
803.88	872.95
803.96	839.05
804.04	868.44
804.12	868.85
804.20	882.78
804.28	915.85
804.35	939.30
804.43	963.47
804.51	962.95
804.59	975.96
804.67	930.29
804.75	890.87
804.82	840.90
804.90	756.21
804.98	668.35
805.06	619.20
805.14	622.48
805.21	631.80
805.29	630.47
805.37	686.07
805.45	697.54
805.53	716.28
805.60	753.45
805.68	706.55
805.76	694.26
805.84	690.58
805.92	669.99
805.99	680.13
806.07	656.78
806.15	683.10
806.23	671.43
806.31	667.02
806.38	634.56
806.46	625.14
806.54	618.18
806.62	600.67
806.70	569.03
806.77	547.83
806.85	515.99
806.93	527.97
807.01	517.32
807.09	518.65
807.16	501.45
807.24	516.80
807.32	507.28
807.40	525.20
807.48	506.77
807.55	521.31
807.63	546.91
807.71	578.65
807.79	525.00
807.86	544.76
807.94	549.16
808.02	562.99
808.10	573.84
808.17	579.68
808.25	583.98
808.33	585.82
808.41	599.85
808.49	627.40
808.56	652.48
808.64	647.57
808.72	673.78
808.80	717.40
808.87	776.59
808.95	810.79
809.03	814.07
809.11	864.55
809.18	853.39
809.26	855.95
809.34	840.08
809.42	839.67
809.49	850.52
809.57	840.79
809.65	863.42
809.73	834.44
809.80	875.20
809.88	888.20
809.96	890.15
810.04	912.17
810.11	909.30
810.19	932.03
810.27	969.20
810.35	1002.28
810.42	1036.17
810.50	1121.47
810.58	1124.23
810.66	1205.43
810.73	1187.11
810.81	1175.64
810.89	1233.80
810.96	1221.00
811.04	1184.65
811.12	1257.35
811.20	1343.16
811.27	1456.52
811.35	1558.91
811.43	1848.19
811.50	2028.31
811.58	2339.60
811.66	2389.77
811.74	2468.11
811.81	2338.47
811.89	2171.26
811.97	1866.01
812.05	1536.39
812.12	1205.54
812.20	946.78
812.28	689.96
812.35	562.17
812.43	459.26
812.51	436.11
812.58	399.05
812.66	400.89
812.74	356.65
812.82	381.23
812.89	373.96
812.97	398.53
813.05	362.18
813.12	370.27
813.20	359.83
813.28	355.63
813.35	333.00
813.43	334.13
813.51	340.17
813.59	367.41
813.66	360.85
813.74	348.77
813.82	373.34
813.89	376.11
813.97	370.78
814.05	344.06
814.12	357.17
814.20	361.26
814.28	367.71
814.35	352.97
814.43	394.03
814.51	390.34
814.58	390.04
814.66	382.77
814.74	393.11
814.81	379.08
814.89	378.67
814.97	388.50
815.04	356.14
815.12	364.74
815.20	391.37
815.27	389.42
815.35	371.71
815.43	350.92
815.50	375.50
815.58	379.69
815.66	375.60
815.73	406.01
815.81	406.32
815.89	391.78
815.96	376.83
816.04	367.92
816.12	348.77
816.19	351.43
816.27	325.63
816.35	347.85
816.42	340.47
816.50	367.10
816.58	349.18
816.65	371.50
816.73	372.22
816.80	391.57
816.88	376.52
816.96	397.31
817.03	387.99
817.11	383.48
817.19	372.32
817.26	408.88
817.34	418.40
817.42	441.95
817.49	398.02
817.57	443.49
817.64	438.78
817.72	440.62
817.80	424.85
817.87	425.47
817.95	398.23
818.03	415.43
818.10	433.45
818.18	473.39
818.25	542.20
818.33	587.46
818.41	633.85
818.48	677.67
818.56	753.96
818.63	777.92
818.71	780.48
818.79	725.90
818.86	683.41
818.94	614.29
819.02	531.45
819.09	502.16
819.17	441.85
819.24	398.94
819.32	353.48
819.40	365.26
819.47	336.89
819.55	349.28
819.62	329.72
819.70	341.09
819.78	342.73
819.85	378.57
819.93	389.22
820.00	390.24
820.08	383.79
820.16	387.17
820.23	391.16
820.31	381.33
820.38	354.20
820.46	370.58
820.53	324.81
820.61	320.71
820.69	332.59
820.76	316.92
820.84	318.05
820.91	306.79
820.99	310.98
821.07	314.67
821.14	316.51
821.22	335.46
821.29	374.27
821.37	423.32
821.44	490.28
821.52	538.82
821.60	531.55
821.67	550.19
821.75	551.52
821.82	518.24
821.90	484.65
821.97	408.26
822.05	422.60
822.12	424.13
822.20	397.92
822.28	443.08
822.35	380.61
822.43	396.18
822.50	374.88
822.58	338.12
822.65	288.76
822.73	296.34
822.80	288.35
822.88	257.43
822.96	254.77
823.03	284.97
823.11	277.70
823.18	264.19
823.26	285.28
823.33	277.40
823.41	282.41
823.48	291.32
823.56	305.97
823.63	292.45
823.71	294.09
823.79	303.92
823.86	302.89
823.94	311.19
824.01	350.20
824.09	368.84
824.16	364.85
824.24	387.78
824.31	400.69
824.39	408.67
824.46	373.45
824.54	378.46
824.61	356.76
824.69	368.74
824.76	325.73
824.84	340.88
824.91	364.85
824.99	381.74
825.06	366.69
825.14	337.51
825.21	320.71
825.29	335.66
825.36	341.81
825.44	332.90
825.51	330.85
825.59	330.85
825.67	367.20
825.74	368.74
825.82	352.66
825.89	380.10
825.97	403.86
826.04	382.25
826.12	391.37
826.19	437.34
826.27	395.57
826.34	423.01
826.41	422.91
826.49	410.11
826.56	409.90
826.64	393.62
826.71	374.68
826.79	395.46
826.86	379.90
826.94	401.40
827.01	394.34
827.09	384.61
827.16	385.84
827.24	412.15
827.31	415.74
827.39	405.19
827.46	430.89
827.54	447.07
827.61	453.63
827.69	498.17
827.76	525.71
827.84	601.69
827.91	584.18
827.99	651.05
828.06	690.06
828.14	720.58
828.21	721.60
828.28	685.66
828.36	601.80
828.43	573.64
828.51	474.51
828.58	435.19
828.66	394.44
828.73	377.85
828.81	301.46
828.88	321.02
828.96	326.45
829.03	307.81
829.11	325.52
829.18	363.31
829.25	371.50
829.33	374.37
829.40	372.63
829.48	384.20
829.55	351.12
829.63	381.23
829.70	344.57
829.78	359.83
829.85	356.14
829.92	376.93
830.00	343.03
830.07	354.71
830.15	371.19
830.22	368.02
830.30	345.70
830.37	358.70
830.44	350.92
830.52	363.00
830.59	387.89
830.67	359.01
830.74	382.46
830.82	392.70
830.89	393.62
830.96	373.24
831.04	390.75
831.11	382.05
831.19	383.69
831.26	402.12
831.34	400.38
831.41	415.94
831.48	383.28
831.56	405.91
831.63	386.45
831.71	362.49
831.78	377.95
831.85	402.12
831.93	374.27
832.00	399.87
832.08	388.09
832.15	402.53
832.22	371.81
832.30	373.34
832.37	366.07
832.45	358.80
832.52	348.36
832.59	367.41
832.67	369.15
832.74	356.45
832.82	355.12
832.89	375.39
832.96	379.28
833.04	370.89
833.11	398.23
833.19	415.53
833.26	396.28
833.33	402.02
833.41	415.12
833.48	398.94
833.56	410.62
833.63	384.71
833.70	361.47
833.78	356.45
833.85	354.30
833.92	361.98
834.00	336.79
834.07	349.79
834.15	331.98
834.22	304.23
834.29	294.60
834.37	295.32
834.44	285.18
834.51	304.84
834.59	321.12
834.66	316.92
834.73	341.60
834.81	358.80
834.88	377.75
834.96	405.29
835.03	415.23
835.10	391.57
835.18	382.15
835.25	370.17
835.32	380.21
835.40	368.12
835.47	306.79
835.54	328.39
835.62	345.49
835.69	325.52
835.76	342.93
835.84	363.92
835.91	346.41
835.98	355.12
836.06	344.78
836.13	356.24
836.21	372.63
836.28	364.74
836.35	392.39
836.43	405.81
836.50	410.41
836.57	405.60
836.65	384.40
836.72	377.95
836.79	401.91
836.87	391.67
836.94	408.47
837.01	404.47
837.08	395.87
837.16	407.34
837.23	393.11
837.30	411.74
837.38	417.79
837.45	410.52
837.52	410.00
837.60	422.50
837.67	397.72
837.74	440.21
837.82	428.44
837.89	459.97
837.96	449.43
838.04	447.38
838.11	494.28
838.18	471.85
838.26	464.89
838.33	454.96
838.40	425.57
838.47	454.14
838.55	445.02
838.62	436.83
838.69	474.41
838.77	448.10
838.84	503.90
838.91	465.91
838.99	479.12
839.06	513.22
839.13	490.18
839.20	532.47
839.28	561.35
839.35	561.96
839.42	587.77
839.50	620.23
839.57	672.55
839.64	783.45
839.71	821.65
839.79	881.86
839.86	953.23
839.93	969.20
840.01	1015.49
840.08	1001.97
840.15	940.84
840.22	899.78
840.30	811.61
840.37	730.20
840.44	603.84
840.51	533.50
840.59	448.40
840.66	417.07
840.73	347.64
840.81	329.62
840.88	324.30
840.95	306.07
841.02	299.21
841.10	286.20
841.17	286.61
841.24	317.54
841.31	260.50
841.39	286.00
841.46	295.42
841.53	300.85
841.60	338.63
841.68	345.70
841.75	329.62
841.82	355.22
841.89	341.29
841.97	333.41
842.04	342.73
842.11	290.71
842.18	341.29
842.26	340.17
842.33	328.49
842.40	365.36
842.47	343.96
842.55	380.72
842.62	369.04
842.69	350.41
842.76	383.89
842.84	391.57
842.91	396.49
842.98	416.66
843.05	430.28
843.12	450.55
843.20	465.20
843.27	433.66
843.34	428.84
843.41	456.29
843.49	409.08
843.56	426.80
843.63	427.72
843.70	419.12
843.77	453.42
843.85	464.79
843.92	475.54
843.99	503.39
844.06	517.01
844.14	543.22
844.21	552.03
844.28	582.85
844.35	564.42
844.42	605.89
844.50	594.93
844.57	609.48
844.64	576.71
844.71	604.77
844.78	635.48
844.86	642.35
844.93	637.74
845.00	650.64
845.07	656.58
845.14	691.60
845.22	672.66
845.29	700.61
845.36	714.33
845.43	711.57
845.50	716.89
845.57	727.34
845.65	755.39
845.72	790.72
845.79	835.88
845.86	874.38
845.93	866.91
846.01	892.20
846.08	913.19
846.15	887.28
846.22	894.96
846.29	897.62
846.36	848.88
846.44	866.70
846.51	893.53
846.58	913.39
846.65	985.58
846.72	1076.51
846.80	1167.24
846.87	1221.82
846.94	1308.55
847.01	1353.60
847.08	1414.84
847.15	1457.74
847.22	1477.92
847.30	1509.56
847.37	1463.17
847.44	1471.36
847.51	1440.54
847.58	1409.62
847.65	1404.50
847.73	1390.16
847.80	1373.27
847.87	1440.23
847.94	1422.72
848.01	1443.00
848.08	1439.52
848.15	1454.88
848.23	1453.96
848.30	1428.15
848.37	1390.06
848.44	1419.65
848.51	1391.70
848.58	1389.55
848.65	1387.19
848.73	1368.04
848.80	1396.00
848.87	1470.85
848.94	1475.87
849.01	1566.80
849.08	1536.08
849.15	1577.86
849.23	1615.54
849.30	1619.43
849.37	1563.01
849.44	1573.04
849.51	1472.28
849.58	1430.10
849.65	1364.46
849.72	1312.85
849.79	1294.32
849.87	1282.44
849.94	1269.13
850.01	1284.38
850.08	1299.03
850.15	1348.08
850.22	1390.78
850.29	1444.02
850.36	1454.57
850.44	1499.42
850.51	1526.15
850.58	1575.40
850.65	1592.81
850.72	1600.28
850.79	1646.46
850.86	1716.81
850.93	1744.15
851.00	1791.87
851.07	1766.48
851.15	1737.70
851.22	1737.29
851.29	1700.63
851.36	1613.80
851.43	1532.80
851.50	1503.41
851.57	1534.65
851.64	1550.11
851.71	1591.37
851.78	1631.92
851.85	1760.64
851.92	1844.91
852.00	2002.71
852.07	2051.25
852.14	2116.17
852.21	2146.99
852.28	2174.74
852.35	2056.67
852.42	2031.69
852.49	1893.86
852.56	1809.89
852.63	1749.58
852.70	1719.17
852.77	1704.83
852.84	1701.35
852.92	1704.73
852.99	1689.47
853.06	1745.07
853.13	1766.78
853.20	1806.72
853.27	1914.54
853.34	1991.14
853.41	2132.65
853.48	2184.77
853.55	2268.64
853.62	2367.96
853.69	2420.70
853.76	2511.53
853.83	2448.45
853.90	2423.16
853.97	2360.90
854.04	2263.42
854.11	2112.58
854.18	1915.57
854.26	1729.20
854.33	1529.01
854.40	1370.19
854.47	1210.04
854.54	1089.83
854.61	989.99
854.68	929.78
854.75	883.08
854.82	908.99
854.89	876.74
854.96	964.08
855.03	996.95
855.10	1147.58
855.17	1299.23
855.24	1503.72
855.31	1717.43
855.38	1782.35
855.45	1816.86
855.52	1811.94
855.59	1809.28
855.66	1749.27
855.73	1640.12
855.80	1482.52
855.87	1308.55
855.94	1167.55
856.01	1122.18
856.08	1042.31
856.15	939.51
856.22	833.42
856.29	769.32
856.36	692.21
856.43	643.98
856.50	575.89
856.57	547.83
856.64	544.04
856.71	513.22
856.78	513.32
856.85	487.01
856.92	487.62
856.99	429.77
857.06	426.39
857.13	399.35
857.20	367.30
857.27	380.31
857.34	397.20
857.41	423.21
857.48	454.96
857.55	437.45
857.62	477.07
857.69	485.47
857.76	490.08
857.83	431.30
857.90	417.48
857.97	405.60
858.04	418.50
858.11	402.63
858.18	452.91
858.25	477.79
858.32	488.85
858.39	471.85
858.46	495.30
858.53	493.77
858.60	471.95
858.67	464.27
858.74	467.04
858.81	451.68
858.88	509.53
858.95	557.76
859.02	633.74
859.09	631.70
859.16	673.99
859.23	688.73
859.29	704.91
859.36	664.87
859.43	621.25
859.50	610.09
859.57	611.63
859.64	623.50
859.71	639.17
859.78	664.16
859.85	660.37
859.92	676.55
859.99	672.14
860.06	660.78
860.13	675.52
860.20	695.29
860.27	722.63
860.34	769.42
860.41	798.40
860.48	860.04
860.54	875.10
860.61	890.97
860.68	901.82
860.75	918.92
860.82	867.11
860.89	889.64
860.96	897.52
861.03	900.29
861.10	925.17
861.17	913.50
861.24	918.92
861.31	941.14
861.38	999.51
861.45	1008.11
861.51	1019.89
861.58	1041.80
861.65	1098.22
861.72	1126.79
861.79	1176.56
861.86	1191.20
861.93	1200.11
862.00	1193.35
862.07	1220.08
862.14	1261.14
862.21	1278.14
862.27	1328.11
862.34	1349.30
862.41	1365.79
862.48	1445.46
862.55	1505.77
862.62	1577.96
862.69	1553.90
862.76	1574.89
862.83	1652.81
862.90	1715.99
862.96	1737.50
863.03	1732.79
863.10	1712.82
863.17	1759.61
863.24	1760.74
863.31	1857.81
863.38	1890.38
863.45	1963.80
863.52	2056.26
863.58	2103.06
863.65	2172.18
863.72	2196.24
863.79	2193.89
863.86	2200.64
863.93	2192.56
864.00	2162.65
864.07	2182.42
864.13	2241.09
864.20	2323.01
864.27	2461.76
864.34	2541.02
864.41	2653.04
864.48	2733.12
864.55	2841.86
864.62	2874.63
864.68	2938.53
864.75	2982.76
864.82	3001.30
864.89	3045.02
864.96	3083.93
865.03	3076.05
865.10	3211.11
865.16	3307.06
865.23	3356.62
865.30	3440.08
865.37	3541.76
865.44	3668.83
865.51	3808.51
865.58	3852.54
865.64	3891.55
865.71	3965.89
865.78	4113.14
865.85	4141.30
865.92	4151.23
865.99	4114.78
866.05	4049.04
866.12	3997.74
866.19	4094.30
866.26	4044.12
866.33	4076.48
866.40	3959.34
866.46	3998.25
866.53	4026.51
866.60	4208.17
866.67	4323.98
866.74	4415.22
866.81	4388.29
866.87	4469.79
866.94	4478.50
867.01	4616.53
867.08	4467.13
867.15	4456.99
867.21	4291.01
867.28	4109.66
867.35	3954.63
867.42	3822.33
867.49	3739.28
867.56	3733.14
867.62	3622.45
867.69	3638.22
867.76	3557.22
867.83	3617.74
867.90	3668.83
867.96	3840.66
868.03	3877.11
868.10	4015.25
868.17	3960.98
868.24	4062.25
868.30	4106.18
868.37	4296.74
868.44	4326.13
868.51	4306.78
868.58	4333.91
868.64	4483.93
868.71	4618.37
868.78	4786.92
868.85	4762.45
868.92	4694.56
868.98	4542.91
869.05	4485.87
869.12	4330.23
869.19	4115.80
869.25	3811.07
869.32	3602.17
869.39	3503.87
869.46	3515.13
869.53	3465.98
869.59	3458.10
869.66	3458.00
869.73	3610.26
869.80	3825.81
869.86	4109.15
869.93	4287.32
870.00	4455.77
870.07	4569.94
870.14	4654.42
870.20	4618.68
870.27	4547.11
870.34	4297.46
870.41	4108.12
870.47	3779.73
870.54	3594.49
870.61	3400.65
870.68	3331.02
870.74	3242.45
870.81	3136.05
870.88	3002.83
870.95	2941.29
871.01	2907.50
871.08	2894.80
871.15	2850.47
871.22	2887.84
871.28	2902.79
871.35	2975.49
871.42	3008.06
871.49	3154.90
871.55	3199.95
871.62	3386.83
871.69	3531.72
871.76	3760.38
871.82	3876.80
871.89	4069.11
871.96	4025.38
872.02	4062.76
872.09	3849.16
872.16	3737.75
872.23	3465.37
872.29	3221.25
872.36	2867.57
872.43	2639.01
872.50	2344.11
872.56	2205.66
872.63	2026.98
872.70	1872.05
872.76	1723.88
872.83	1660.29
872.90	1486.93
872.97	1430.30
873.03	1370.91
873.10	1388.83
873.17	1329.03
873.23	1325.75
873.30	1301.38
873.37	1326.57
873.44	1297.29
873.50	1298.41
873.57	1271.07
873.64	1243.63
873.70	1225.50
873.77	1244.96
873.84	1237.89
873.91	1264.72
873.97	1264.31
874.04	1340.29
874.11	1312.24
874.17	1358.52
874.24	1349.10
874.31	1333.23
874.37	1282.13
874.44	1237.59
874.51	1190.69
874.57	1111.94
874.64	1068.12
874.71	990.60
874.77	931.21
874.84	877.86
874.91	824.51
874.98	798.40
875.04	753.96
875.11	744.44
875.18	637.02
875.24	609.17
875.31	589.00
875.38	551.21
875.44	525.20
875.51	549.27
875.58	505.03
875.64	553.57
875.71	532.27
875.78	558.07
875.84	535.95
875.91	563.70
875.98	552.13
876.04	530.12
876.11	536.06
876.18	508.51
876.24	492.33
876.31	506.87
876.37	548.65
876.44	572.51
876.51	543.63
876.57	556.54
876.64	554.90
876.71	587.15
876.77	543.63
876.84	550.90
876.91	496.84
876.97	507.90
877.04	470.62
877.11	516.80
877.17	527.04
877.24	579.47
877.31	624.94
877.37	618.18
877.44	662.11
877.50	669.69
877.57	671.02
877.64	633.74
877.70	638.45
877.77	598.21
877.84	588.07
877.90	597.29
877.97	653.92
878.03	649.31
878.10	681.36
878.17	679.52
878.23	690.47
878.30	675.01
878.37	661.49
878.43	672.45
878.50	669.07
878.56	668.97
878.63	691.91
878.70	729.38
878.76	751.81
878.83	790.72
878.89	834.65
878.96	857.18
879.03	863.63
879.09	853.59
879.16	875.51
879.22	846.43
879.29	858.61
879.36	871.21
879.42	889.13
879.49	885.03
879.55	900.39
879.62	901.82
879.69	906.23
879.75	940.63
879.82	974.22
879.88	987.22
879.95	966.85
880.02	985.58
880.08	1042.83
880.15	1078.36
880.21	1093.41
880.28	1117.68
880.34	1141.74
880.41	1184.55
880.48	1146.66
880.54	1208.92
880.61	1165.81
880.67	1226.94
880.74	1218.75
880.80	1262.88
880.87	1310.70
880.94	1292.99
881.00	1329.64
881.07	1381.97
881.13	1378.08
881.20	1407.88
881.26	1418.01
881.33	1475.25
881.40	1462.35
881.46	1500.85
881.53	1519.18
881.59	1512.83
881.66	1504.23
881.72	1611.75
881.79	1591.78
881.85	1658.14
881.92	1672.99
881.99	1743.95
882.05	1808.87
882.12	1866.93
882.18	1878.40
882.25	1935.23
882.31	1954.27
882.38	2001.48
882.44	1952.23
882.51	2003.84
882.57	2036.09
882.64	2018.68
882.71	2082.37
882.77	2088.31
882.84	2149.65
882.90	2243.34
882.97	2298.64
883.03	2379.23
883.10	2415.48
883.16	2519.10
883.23	2535.69
883.29	2604.91
883.36	2595.39
883.42	2640.04
883.49	2621.91
883.55	2714.48
883.62	2697.69
883.68	2721.34
883.75	2709.57
883.81	2787.80
883.88	2857.53
883.94	2924.91
884.01	2982.66
884.07	3014.20
884.14	3017.17
884.20	3147.83
884.27	3176.19
884.34	3262.11
884.40	3300.20
884.47	3340.44
884.53	3371.16
884.60	3468.44
884.66	3428.91
884.73	3508.89
884.79	3430.76
884.86	3420.42
884.92	3362.25
884.98	3375.87
885.05	3363.69
885.11	3380.38
885.18	3377.10
885.24	3376.59
885.31	3335.22
885.37	3379.66
885.44	3429.02
885.50	3493.02
885.57	3571.96
885.63	3591.52
885.70	3630.95
885.76	3653.88
885.83	3677.03
885.89	3752.80
885.96	3671.70
886.02	3587.73
886.09	3522.71
886.15	3465.16
886.22	3345.56
886.28	3272.76
886.35	3138.20
886.41	3067.24
886.47	2941.09
886.54	2877.60
886.60	2772.54
886.67	2730.04
886.73	2655.81
886.80	2644.54
886.86	2665.84
886.93	2666.86
886.99	2643.93
887.06	2668.09
887.12	2669.32
887.19	2691.44
887.25	2730.45
887.31	2787.90
887.38	2744.07
887.44	2821.28
887.51	2847.91
887.57	2887.12
887.64	2918.77
887.70	3010.82
887.77	3046.76
887.83	3163.60
887.89	3205.89
887.96	3229.13
888.02	3175.07
888.09	3143.32
888.15	3058.85
888.22	3040.62
888.28	2935.46
888.34	2879.24
888.41	2718.78
888.47	2680.69
888.54	2626.52
888.60	2641.37
888.67	2596.52
888.73	2628.16
888.79	2662.26
888.86	2731.27
888.92	2759.84
888.99	2940.17
889.05	3019.32
889.11	3153.46
889.18	3200.46
889.24	3287.09
889.31	3273.78
889.37	3302.25
889.44	3221.97
889.50	3151.52
889.56	2979.28
>>>>>End Processed Spectral Data<<<<<
