SpectraSuite Data File
++++++++++++++++++++++++++++++++++++
Date: Wed Jul 12 16:29:54 CDT 2017
User: Owner
Dark Spectrum Present: Yes
Reference Spectrum Present: Yes
Number of Sampled Component Spectra: 1
Spectrometers: USB4H04489
Integration Time (usec): 50000 (USB4H04489)
Spectra Averaged: 20 (USB4H04489)
Boxcar Smoothing: 0 (USB4H04489)
Correct for Electrical Dark: No (USB4H04489)
Strobe/Lamp Enabled: No (USB4H04489)
Correct for Detector Non-linearity: No (USB4H04489)
Correct for Stray Light: No (USB4H04489)
Number of Pixels in Processed Spectrum: 3648
>>>>>Begin Processed Spectral Data<<<<<
580.28	13.82
580.38	13.82
580.48	13.82
580.59	-40.04
580.69	1.84
580.79	-7.99
580.90	13.93
581.00	-13.31
581.11	1.74
581.21	1.02
581.31	21.20
581.42	0.61
581.52	11.47
581.62	-4.10
581.73	3.79
581.83	16.08
581.93	30.62
582.04	64.20
582.14	3868.00
582.25	6090.04
582.35	6240.78
582.45	6340.41
582.56	6600.60
582.66	6864.28
582.76	7162.26
582.87	7401.97
582.97	7656.33
583.07	7616.70
583.18	7905.16
583.28	7937.52
583.38	8042.58
583.49	7952.88
583.59	7894.10
583.70	7640.36
583.80	7375.66
583.90	7220.32
584.01	7212.13
584.11	7177.72
584.21	7441.50
584.32	7384.67
584.42	7672.51
584.52	7635.54
584.63	7680.09
584.73	7659.40
584.83	7864.61
584.94	7814.43
585.04	7614.76
585.14	7360.50
585.25	7145.67
585.35	6769.77
585.45	6713.55
585.56	6628.97
585.66	6917.12
585.76	6736.59
585.87	6326.18
585.97	5777.52
586.07	5288.57
586.18	4780.16
586.28	4655.14
586.38	4773.20
586.49	5049.27
586.59	5229.49
586.69	5456.40
586.80	5529.62
586.90	5826.68
587.00	5887.60
587.11	6127.11
587.21	6228.69
587.31	6471.79
587.41	6666.96
587.52	6912.41
587.62	7118.43
587.72	7438.53
587.83	7629.61
587.93	8029.37
588.03	8162.49
588.14	8254.44
588.24	8371.89
588.34	8573.21
588.45	8601.78
588.55	8780.05
588.65	8628.60
588.75	8417.56
588.86	8159.11
588.96	8010.32
589.06	7718.08
589.17	7891.64
589.27	8003.97
589.37	8198.43
589.48	8375.07
589.58	8468.04
589.68	8536.14
589.78	8657.89
589.89	8570.85
589.99	8817.63
590.09	8890.74
590.20	8563.38
590.30	8285.98
590.40	8041.04
590.50	7687.87
590.61	7522.50
590.71	7524.95
590.81	8036.64
590.92	7768.76
591.02	7396.14
591.12	6799.05
591.22	6082.36
591.33	5398.14
591.43	5236.96
591.53	5132.72
591.64	5279.97
591.74	5528.70
591.84	5770.36
591.94	5872.04
592.05	6015.29
592.15	6261.25
592.25	6504.76
592.35	6537.73
592.46	6837.66
592.56	6966.06
592.66	7336.64
592.76	7577.28
592.87	7856.01
592.97	7950.83
593.07	8323.66
593.18	8325.50
593.28	8431.28
593.38	8437.22
593.48	8551.81
593.59	8583.55
593.69	8851.53
593.79	8816.20
593.89	8742.16
594.00	8477.87
594.10	8363.90
594.20	8079.34
594.30	7953.70
594.41	7981.75
594.51	8190.24
594.61	8220.96
594.71	8482.58
594.82	8776.37
594.92	8833.09
595.02	8881.94
595.12	9016.59
595.23	9078.65
595.33	9156.37
595.43	9071.48
595.53	8967.85
595.64	8625.84
595.74	8286.39
595.84	7904.34
595.94	7887.85
596.04	7990.56
596.15	7854.68
596.25	7149.25
596.35	6733.00
596.45	5828.31
596.56	5037.18
596.66	4585.50
596.76	4564.72
596.86	4651.14
596.97	4914.31
597.07	5015.78
597.17	5267.89
597.27	5325.85
597.37	5654.24
597.48	5723.25
597.58	5984.37
597.68	5947.20
597.78	6319.93
597.89	6478.34
597.99	6705.66
598.09	6946.40
598.19	7216.53
598.29	7430.54
598.40	7844.64
598.50	8169.96
598.60	8313.93
598.70	8491.90
598.80	8743.19
598.91	8816.20
599.01	8910.00
599.11	9050.90
599.21	9331.77
599.31	8913.99
599.42	8728.55
599.52	8539.52
599.62	8195.46
599.72	7966.70
599.82	8124.39
599.93	8212.25
600.03	8446.13
600.13	8594.40
600.23	8770.32
600.33	8862.48
600.44	8990.48
600.54	8948.39
600.64	9153.60
600.74	9068.41
600.84	9200.60
600.95	8787.32
601.05	8513.71
601.15	8009.91
601.25	7717.98
601.35	7509.49
601.46	7907.62
601.56	7865.12
601.66	7737.12
601.76	6831.10
601.86	6280.40
601.96	5288.26
602.07	4587.96
602.17	4349.48
602.27	4381.42
602.37	4522.53
602.47	4708.69
602.57	4858.09
602.68	4972.78
602.78	5018.85
602.88	5217.00
602.98	5327.38
603.08	5333.42
603.18	5422.41
603.29	5626.08
603.39	5657.41
603.49	5885.25
603.59	5897.23
603.69	6244.36
603.79	6341.43
603.90	6660.10
604.00	6770.89
604.10	7061.40
604.20	7189.50
604.30	7316.06
604.40	7249.40
604.51	7376.99
604.61	7476.62
604.71	7691.56
604.81	7485.22
604.91	7370.84
605.01	7075.12
605.11	6845.54
605.22	6372.36
605.32	6556.57
605.42	6470.25
605.52	6698.91
605.62	6683.75
605.72	6850.56
605.83	6777.04
605.93	7095.29
606.03	7045.93
606.13	7145.57
606.23	7174.34
606.33	7280.12
606.43	7083.82
606.53	6913.94
606.64	6350.24
606.74	6207.09
606.84	5729.29
606.94	5685.98
607.04	5828.72
607.14	6084.41
607.24	5808.55
607.35	5147.88
607.45	4497.34
607.55	3789.46
607.65	2953.89
607.75	2746.94
607.85	2740.69
607.95	2845.24
608.05	2898.59
608.16	2996.49
608.26	2954.30
608.36	3046.66
608.46	3013.18
608.56	3113.01
608.66	3060.79
608.76	3109.74
608.86	3129.09
608.96	3187.25
609.07	3147.32
609.17	3209.78
609.27	3240.81
609.37	3323.55
609.47	3449.29
609.57	3583.23
609.67	3662.28
609.77	3783.21
609.87	3854.89
609.98	3933.84
610.08	3931.69
610.18	3981.46
610.28	4053.54
610.38	4162.29
610.48	4200.08
610.58	4111.19
610.68	3957.29
610.78	3877.62
610.88	3717.88
610.98	3626.95
611.09	3665.76
611.19	3857.35
611.29	3839.63
611.39	3943.88
611.49	3937.42
611.59	4056.62
611.69	4148.67
611.79	4205.30
611.89	4226.09
611.99	4331.76
612.09	4426.17
612.20	4362.28
612.30	4207.35
612.40	4063.89
612.50	3886.12
612.60	3756.28
612.70	3704.06
612.80	3877.93
612.90	4025.90
613.00	3908.34
613.10	3649.38
613.20	3320.06
613.30	2928.49
613.40	2534.36
613.50	2442.61
613.61	2467.70
613.71	2550.23
613.81	2616.08
613.91	2698.30
614.01	2824.05
614.11	2816.06
614.21	2864.29
614.31	2910.16
614.41	3012.87
614.51	3054.24
614.61	3119.88
614.71	3161.76
614.81	3236.71
614.91	3306.45
615.01	3306.65
615.11	3391.74
615.22	3482.06
615.32	3579.34
615.42	3647.94
615.52	3794.78
615.62	3822.94
615.72	3784.34
615.82	3825.20
615.92	3869.84
616.02	3967.73
616.12	3871.68
616.22	3871.89
616.32	3854.79
616.42	3785.88
616.52	3731.40
616.62	3558.86
616.72	3566.44
616.82	3547.39
616.92	3489.84
617.02	3618.15
617.12	3566.23
617.22	3657.57
617.32	3497.42
617.42	3510.22
617.52	3540.43
617.62	3623.57
617.72	3560.91
617.83	3616.41
617.93	3578.31
618.03	3502.03
618.13	3349.15
618.23	3231.59
618.33	3146.50
618.43	3161.04
618.53	3119.16
618.63	3074.31
618.73	3081.17
618.83	3071.24
618.93	2856.81
619.03	2630.31
619.13	2417.22
619.23	2229.73
619.33	2106.03
619.43	2063.12
619.53	2080.33
619.63	2101.01
619.73	2190.40
619.83	2158.46
619.93	2194.81
620.03	2228.80
620.13	2202.28
620.23	2269.87
620.33	2234.13
620.43	2351.58
620.53	2353.01
620.63	2508.56
620.73	2537.43
620.83	2677.51
620.93	2716.94
621.03	2849.44
621.13	2925.52
621.23	3024.85
621.33	3065.40
621.43	3170.46
621.53	3206.71
621.63	3397.07
621.73	3499.36
621.83	3637.09
621.93	3744.40
622.03	3900.56
622.13	4041.36
622.23	4157.68
622.33	4198.34
622.43	4353.78
622.53	4267.15
622.63	4353.47
622.73	4333.19
622.83	4394.94
622.93	4333.30
623.03	4295.92
623.13	4182.05
623.23	4172.43
623.33	4114.57
623.42	4232.64
623.52	4296.95
623.62	4469.90
623.72	4556.32
623.82	4476.45
623.92	4452.59
624.02	4232.03
624.12	4039.82
624.22	3956.06
624.32	3985.04
624.42	4051.50
624.52	3976.75
624.62	3992.62
624.72	3899.13
624.82	3764.47
624.92	3505.51
625.02	3486.97
625.12	3567.36
625.22	3697.20
625.32	3838.51
625.42	3967.12
625.52	3868.31
625.62	3772.87
625.72	3505.82
625.82	3432.60
625.91	3330.71
626.01	3338.60
626.11	3509.09
626.21	3730.27
626.31	3819.67
626.41	4001.12
626.51	4008.69
626.61	4182.87
626.71	4243.08
626.81	4324.08
626.91	4423.82
627.01	4569.22
627.11	4717.60
627.21	4984.86
627.31	5328.00
627.41	5708.51
627.51	5773.02
627.60	5692.02
627.70	5496.65
627.80	5225.90
627.90	4846.52
628.00	4652.68
628.10	4704.59
628.20	4990.59
628.30	5152.38
628.40	5332.81
628.50	5620.96
628.60	5890.47
628.70	6027.58
628.80	6413.62
628.89	6520.32
628.99	6864.38
629.09	7067.85
629.19	7424.30
629.29	7591.82
629.39	7803.48
629.49	7887.34
629.59	8078.72
629.69	8101.66
629.79	8212.56
629.89	8125.42
629.98	8173.14
630.08	8008.07
630.18	8048.62
630.28	8064.39
630.38	8312.50
630.48	8506.44
630.58	8830.12
630.68	9118.48
630.78	9428.95
630.88	9490.08
630.98	9735.84
631.07	9821.14
631.17	9902.85
631.27	10045.39
631.37	10402.35
631.47	10433.17
631.57	10528.71
631.67	10638.17
631.77	10829.97
631.87	11003.02
631.96	11319.02
632.06	11746.53
632.16	11590.48
632.26	10893.66
632.36	9938.59
632.46	8339.33
632.56	6686.21
632.66	5244.03
632.75	4550.18
632.85	3940.91
632.95	3692.59
633.05	3795.30
633.15	3820.28
633.25	3775.64
633.35	3910.60
633.45	3894.31
633.55	3956.37
633.64	3940.29
633.74	3979.92
633.84	3901.38
633.94	3956.98
634.04	3895.95
634.14	3945.62
634.24	3901.79
634.33	4122.25
634.43	4219.53
634.53	4445.01
634.63	4579.46
634.73	4780.47
634.83	4996.74
634.93	5261.23
635.02	5433.98
635.12	5761.86
635.22	5874.19
635.32	6265.76
635.42	6410.35
635.52	6742.02
635.62	7076.76
635.71	7354.05
635.81	7574.11
635.91	7888.88
636.01	8127.67
636.11	8413.77
636.21	8584.47
636.31	8836.06
636.40	8759.06
636.50	8856.24
636.60	8821.11
636.70	9044.44
636.80	8909.59
636.90	9071.99
636.99	8762.75
637.09	8562.76
637.19	8270.62
637.29	8003.87
637.39	7727.91
637.49	8019.13
637.58	8083.23
637.68	8332.98
637.78	8574.54
637.88	8815.58
637.98	8780.36
638.08	8948.91
638.17	8715.54
638.27	8619.29
638.37	8639.25
638.47	8773.09
638.57	8919.62
638.66	8891.36
638.76	8557.54
638.86	8280.86
638.96	7788.43
639.06	7196.97
639.16	7140.14
639.25	7277.35
639.35	7435.66
639.45	7816.99
639.55	7784.53
639.65	7465.26
639.74	6692.25
639.84	6031.98
639.94	5330.97
640.04	4712.27
640.14	4395.56
640.23	4650.83
640.33	4685.14
640.43	4896.80
640.53	4880.72
640.63	5103.44
640.73	5040.46
640.82	5186.69
640.92	5200.20
641.02	5230.10
641.12	5075.89
641.21	5206.55
641.31	5115.72
641.41	5275.98
641.51	5416.16
641.61	5685.37
641.70	5859.24
641.80	6295.87
641.90	6452.23
642.00	6838.78
642.10	7183.86
642.19	7690.74
642.29	7960.66
642.39	8590.92
642.49	8897.40
642.59	9492.23
642.68	9845.20
642.78	10351.46
642.88	10983.77
642.98	11455.42
643.07	11919.38
643.17	12469.26
643.27	12821.31
643.37	13622.78
643.46	13586.33
643.56	14170.41
643.66	14309.98
643.76	14324.62
643.86	14453.13
643.95	14680.35
644.05	14740.97
644.15	15132.34
644.25	14989.19
644.34	14552.35
644.44	14055.00
644.54	13596.87
644.64	13090.41
644.73	13215.64
644.83	13061.02
644.93	13622.99
645.03	13947.28
645.12	14260.01
645.22	14600.99
645.32	14891.80
645.42	14863.03
645.51	14749.88
645.61	14369.57
645.71	14656.60
645.81	14925.90
645.90	15364.78
646.00	15286.35
646.10	15047.35
646.20	14434.80
646.29	13841.30
646.39	12747.07
646.49	12249.52
646.59	12446.02
646.68	12836.67
646.78	13404.77
646.88	13848.57
646.98	13571.89
647.07	12552.72
647.17	11205.36
647.27	10061.88
647.37	8726.19
647.46	7839.62
647.56	7643.12
647.66	7878.64
647.75	7927.99
647.85	8190.13
647.95	8484.02
648.05	8585.70
648.14	8578.94
648.24	8818.55
648.34	8860.95
648.44	9012.80
648.53	8883.27
648.63	8864.53
648.73	8813.84
648.82	8919.21
648.92	8847.84
649.02	9198.35
649.12	9440.01
649.21	9744.75
649.31	10219.26
649.41	10734.84
649.50	11230.75
649.60	11996.49
649.70	12544.12
649.80	13171.72
649.89	13761.63
649.99	14576.21
650.09	15132.54
650.18	15904.93
650.28	16607.90
650.38	17573.52
650.47	18343.45
650.57	19243.33
650.67	19845.43
650.77	20683.15
650.86	21340.45
650.96	22133.01
651.06	22389.42
651.15	23065.25
651.25	23108.36
651.35	23433.98
651.44	23585.84
651.54	24134.49
651.64	23841.74
651.73	24391.41
651.83	23736.67
651.93	23412.28
652.03	21975.32
652.12	21260.17
652.22	20638.10
652.32	20770.91
652.41	20862.45
652.51	21756.80
652.61	22220.36
652.70	22895.06
652.80	23023.37
652.90	23792.79
652.99	23539.76
653.09	23663.46
653.19	22988.86
653.28	23379.41
653.38	23729.40
653.48	24191.43
653.57	24493.30
653.67	24478.76
653.77	23444.43
653.86	21971.12
653.96	20618.03
654.06	19282.14
654.15	18856.16
654.25	19395.08
654.35	20260.66
654.44	21154.70
654.54	21465.99
654.64	20429.21
654.73	18021.20
654.83	15954.80
654.93	13535.44
655.02	11634.51
655.12	10259.91
655.22	10280.50
655.31	10573.05
655.41	10949.36
655.51	10921.92
655.60	11338.48
655.70	11567.75
655.79	11506.92
655.89	11566.31
655.99	11803.98
656.08	11671.78
656.18	11700.25
656.28	11354.76
656.37	11482.14
656.47	11271.30
656.57	11579.73
656.66	11599.29
656.76	12183.16
656.85	12622.55
656.95	13223.02
657.05	13830.34
657.14	14512.32
657.24	15099.57
657.34	16015.63
657.43	16717.98
657.53	17663.63
657.63	18179.31
657.72	19080.72
657.82	19957.97
657.91	20794.87
658.01	21971.53
658.11	23123.21
658.20	24240.88
658.30	25177.11
658.39	26161.47
658.49	27594.95
658.59	28287.57
658.68	29376.68
658.78	30250.96
658.88	30809.85
658.97	30625.12
659.07	31262.04
659.16	31227.73
659.26	31767.78
659.36	31843.35
659.45	32266.26
659.55	32000.64
659.64	31781.10
659.74	30157.26
659.84	29379.75
659.93	27593.00
660.03	27306.28
660.12	26946.56
660.22	27660.79
660.32	28095.06
660.41	29186.63
660.51	29799.69
660.60	30512.89
660.70	30778.51
660.80	31442.98
660.89	31008.09
660.99	30928.12
661.08	30582.01
661.18	31614.39
661.28	31770.14
661.37	32439.93
661.47	32296.67
661.56	31489.87
661.66	29960.35
661.75	27883.20
661.85	25758.53
661.95	24811.35
662.04	24847.39
662.14	25893.19
662.23	27196.92
662.33	28067.72
662.43	27600.58
662.52	25712.15
662.62	22514.86
662.71	19708.42
662.81	16176.80
662.90	13709.00
663.00	12432.19
663.10	12456.05
663.19	12694.33
663.29	13140.48
663.38	13154.62
663.48	13631.59
663.57	13687.50
663.67	13874.27
663.77	13662.00
663.86	13637.42
663.96	13615.61
664.05	13480.75
664.15	13138.85
664.24	13099.73
664.34	12649.07
664.43	12486.67
664.53	12343.41
664.63	12419.09
664.72	12648.56
664.82	13156.87
664.91	13388.49
665.01	14111.84
665.10	14632.74
665.20	15550.94
665.29	16007.03
665.39	16823.45
665.48	17477.88
665.58	18214.53
665.68	18973.41
665.77	19604.80
665.87	20480.61
665.96	21508.48
666.06	22334.43
666.15	23697.46
666.25	24181.08
666.34	24983.58
666.44	25794.47
666.53	27322.87
666.63	27611.53
666.72	28473.22
666.82	29201.47
666.91	29803.47
667.01	29834.30
667.11	29970.69
667.20	30240.41
667.30	30383.15
667.39	30687.58
667.49	31219.85
667.58	30594.91
667.68	30491.29
667.77	28880.97
667.87	28164.90
667.96	26335.24
668.06	25737.44
668.15	25572.37
668.25	25885.20
668.34	26203.56
668.44	26930.28
668.53	27327.99
668.63	27963.58
668.72	28416.59
668.82	28772.22
668.91	29019.10
669.01	28747.44
669.10	28175.75
669.20	29020.13
669.29	29024.33
669.39	29457.06
669.48	29921.85
669.58	30209.28
669.67	28920.60
669.77	27307.00
669.86	25191.35
669.96	23781.63
670.05	22324.09
670.15	23109.79
670.24	23814.29
670.34	25451.34
670.43	26161.16
670.53	26444.60
670.62	24560.47
670.72	21995.70
670.81	18820.53
670.91	15855.48
671.00	13077.41
671.10	11935.25
671.19	11709.47
671.29	12097.56
671.38	12454.93
671.48	12698.33
671.57	12893.50
671.67	13282.82
671.76	13453.21
671.86	13952.09
671.95	13630.26
672.04	13997.05
672.14	14093.81
672.23	14121.26
672.33	13896.59
672.42	13914.31
672.52	13893.52
672.61	13960.90
672.71	13913.39
672.80	14272.60
672.90	14606.01
672.99	15114.83
673.09	15472.71
673.18	16257.39
673.28	16744.91
673.37	17817.53
673.46	18665.90
673.56	19780.20
673.65	20513.07
673.75	21651.13
673.84	22385.94
673.94	23816.95
674.03	25251.56
674.13	27072.51
674.22	29067.23
674.32	31519.78
674.41	32038.42
674.50	32232.47
674.60	31142.64
674.69	29901.57
674.79	27515.28
674.88	25469.15
674.98	23772.72
675.07	23695.61
675.17	23208.71
675.26	23223.97
675.35	22961.01
675.45	23348.48
675.54	23179.63
675.64	23767.19
675.73	23707.39
675.83	24129.48
675.92	23827.30
676.01	23161.71
676.11	21959.04
676.20	20931.67
676.30	19833.35
676.39	19566.09
676.49	19308.76
676.58	19561.58
676.67	19838.78
676.77	20610.76
676.86	20711.31
676.96	21224.02
677.05	21396.87
677.15	21970.40
677.24	22064.51
677.33	22097.07
677.43	21778.71
677.52	22012.18
677.62	22250.16
677.71	22831.68
677.80	22917.69
677.90	23439.21
677.99	22169.06
678.09	21203.85
678.18	19777.13
678.27	18065.64
678.37	16736.92
678.46	16639.75
678.56	17202.32
678.65	18031.96
678.74	18988.05
678.84	19922.95
678.93	18905.00
679.03	17588.57
679.12	15091.17
679.21	12552.10
679.31	9930.19
679.40	7955.23
679.50	7047.37
679.59	6931.25
679.68	6881.89
679.78	7082.80
679.87	7049.93
679.97	7231.58
680.06	7176.59
680.15	7320.98
680.25	7201.89
680.34	7164.61
680.44	6976.51
680.53	6864.38
680.62	6519.09
680.72	6272.52
680.81	5941.57
680.90	5721.62
681.00	5294.61
681.09	5208.60
681.19	4962.74
681.28	4876.21
681.37	4800.64
681.47	4937.76
681.56	4966.12
681.65	5143.06
681.75	5190.88
681.84	5410.84
681.94	5664.78
682.03	5875.72
682.12	6036.18
682.22	6260.54
682.31	6406.25
682.40	6571.93
682.50	6879.02
682.59	7234.35
682.68	7391.63
682.78	7835.43
682.87	8068.08
682.96	8447.05
683.06	8555.29
683.15	8940.51
683.25	9302.39
683.34	9568.42
683.43	9817.76
683.53	10102.73
683.62	10302.00
683.71	10535.26
683.81	10581.85
683.90	10761.87
683.99	10682.41
684.09	10821.98
684.18	10886.80
684.27	11067.43
684.37	11125.39
684.46	11064.87
684.55	10854.54
684.65	10393.03
684.74	9839.57
684.83	9422.19
684.93	8985.57
685.02	8959.86
685.11	8821.22
685.21	9150.22
685.30	9270.13
685.39	9615.11
685.49	9732.25
685.58	9944.94
685.67	9914.83
685.77	10236.06
685.86	10294.42
685.95	10174.21
686.05	10084.91
686.14	10232.27
686.23	10140.52
686.33	10387.91
686.42	10415.56
686.51	10563.32
686.61	10335.07
686.70	9833.32
686.79	9214.22
686.88	8571.98
686.98	7777.67
687.07	7613.02
687.16	7671.18
687.26	8076.47
687.35	8457.60
687.44	8923.72
687.54	8865.66
687.63	8498.56
687.72	7561.20
687.82	6538.45
687.91	5279.36
688.00	4191.07
688.09	3620.71
688.19	3366.14
688.28	3241.93
688.37	3272.14
688.47	3183.98
688.56	3168.92
688.65	3185.51
688.74	3144.45
688.84	3081.68
688.93	3106.26
689.02	3037.55
689.12	3045.53
689.21	2933.20
689.30	2867.16
689.39	2730.97
689.49	2614.44
689.58	2470.67
689.67	2290.86
689.77	2117.50
689.86	2020.32
689.95	1855.46
690.04	1735.24
690.14	1629.77
690.23	1607.25
690.32	1591.78
690.42	1573.66
690.51	1557.48
690.60	1551.64
690.69	1539.46
690.79	1498.40
690.88	1481.60
690.97	1474.95
691.06	1448.73
691.16	1439.72
691.25	1419.24
691.34	1430.10
691.43	1404.60
691.53	1445.66
691.62	1382.99
691.71	1368.25
691.80	1387.19
691.90	1376.03
691.99	1389.44
692.08	1362.82
692.18	1404.60
692.27	1425.90
692.36	1392.11
692.45	1402.14
692.55	1374.80
692.64	1377.87
692.73	1374.80
692.82	1380.33
692.91	1350.23
693.01	1386.99
693.10	1391.59
693.19	1384.94
693.28	1336.20
693.38	1386.17
693.47	1366.61
693.56	1348.38
693.65	1332.92
693.75	1368.76
693.84	1339.68
693.93	1363.33
694.02	1382.28
694.12	1374.19
694.21	1379.41
694.30	1389.14
694.39	1340.19
694.48	1358.52
694.58	1347.26
694.67	1331.18
694.76	1300.66
694.85	1286.74
694.95	1274.86
695.04	1292.17
695.13	1276.81
695.22	1281.31
695.31	1288.17
695.41	1287.66
695.50	1285.00
695.59	1280.70
695.68	1232.16
695.78	1227.86
695.87	1226.73
695.96	1232.57
696.05	1249.77
696.14	1248.95
696.24	1274.04
696.33	1302.71
696.42	1273.32
696.51	1262.98
696.60	1214.86
696.70	1185.47
696.79	1197.24
696.88	1176.05
696.97	1169.59
697.06	1161.92
697.16	1157.20
697.25	1197.55
697.34	1218.23
697.43	1246.50
697.52	1285.10
697.62	1323.50
697.71	1387.09
697.80	1395.28
697.89	1377.87
697.98	1436.24
698.08	1379.31
698.17	1437.98
698.26	1447.09
698.35	1473.41
698.44	1509.76
698.53	1512.42
698.63	1521.03
698.72	1577.24
698.81	1565.67
698.90	1598.95
698.99	1618.61
699.08	1665.10
699.18	1676.57
699.27	1706.47
699.36	1709.75
699.45	1775.59
699.54	1836.41
699.64	1873.17
699.73	1934.41
699.82	2016.12
699.91	2086.78
700.00	2226.65
700.09	2252.97
700.19	2226.24
700.28	2179.35
700.37	2095.48
700.46	2008.85
700.55	1920.79
700.64	1788.59
700.73	1762.38
700.83	1709.44
700.92	1677.80
701.01	1675.75
701.10	1692.24
701.19	1653.94
701.28	1693.57
701.38	1709.95
701.47	1740.26
701.56	1703.30
701.65	1738.01
701.74	1771.49
701.83	1734.63
701.92	1727.67
702.02	1756.34
702.11	1775.90
702.20	1806.92
702.29	1814.60
702.38	1841.43
702.47	1892.94
702.56	1979.57
702.66	1983.36
702.75	2035.78
702.84	2019.30
702.93	2032.51
703.02	2004.14
703.11	2016.84
703.20	2021.86
703.29	2062.20
703.39	2071.11
703.48	2148.11
703.57	2145.45
703.66	2265.36
703.75	2297.21
703.84	2414.25
703.93	2440.97
704.02	2503.44
704.12	2587.61
704.21	2717.96
704.30	2796.30
704.39	2996.79
704.48	3103.49
704.57	3205.17
704.66	3283.51
704.75	3280.03
704.84	3226.27
704.94	3291.19
705.03	3271.02
705.12	3352.32
705.21	3292.42
705.30	3432.91
705.39	3491.07
705.48	3597.26
705.57	3663.41
705.66	3788.84
705.75	3927.08
705.85	4095.43
705.94	4086.21
706.03	4171.92
706.12	4268.58
706.21	4327.05
706.30	4389.92
706.39	4543.73
706.48	4738.39
706.57	4927.41
706.66	5018.14
706.75	5332.60
706.85	5563.61
706.94	5946.48
707.03	6272.31
707.12	6884.55
707.21	7435.76
707.30	7951.24
707.39	7964.24
707.48	7556.49
707.57	7072.56
707.66	6215.18
707.75	5172.45
707.84	4314.15
707.93	3650.30
708.03	3309.72
708.12	3144.86
708.21	3074.41
708.30	3005.09
708.39	3031.51
708.48	3050.55
708.57	3118.34
708.66	3115.17
708.75	3177.42
708.84	3192.07
708.93	3299.58
709.02	3289.96
709.11	3266.71
709.20	3258.73
709.29	3325.70
709.39	3298.46
709.48	3459.43
709.57	3535.31
709.66	3683.68
709.75	3717.88
709.84	3801.03
709.93	3804.51
710.02	3938.96
710.11	3913.77
710.20	3956.47
710.29	4057.74
710.38	4157.38
710.47	4201.82
710.56	4331.56
710.65	4491.09
710.74	4496.21
710.83	4611.51
710.92	4755.38
711.01	4930.38
711.10	5122.38
711.19	5169.48
711.28	5454.76
711.38	5521.02
711.47	5724.48
711.56	5821.15
711.65	6038.44
711.74	6212.41
711.83	6461.24
711.92	6528.51
712.01	6751.64
712.10	6953.88
712.19	7148.43
712.28	7329.78
712.37	7599.19
712.46	7857.75
712.55	7970.39
712.64	8116.82
712.73	8327.45
712.82	8601.98
712.91	8781.18
713.00	8973.07
713.09	9022.94
713.18	9021.81
713.27	9054.79
713.36	8940.92
713.45	9169.68
713.54	8982.08
713.63	9304.43
713.72	9510.66
713.81	9682.90
713.90	9839.06
713.99	10170.83
714.08	10485.80
714.17	10898.78
714.26	11156.10
714.35	11554.13
714.44	11680.69
714.53	12069.50
714.62	12353.55
714.71	12870.56
714.80	13495.60
714.89	14199.90
714.98	15049.09
715.07	16505.81
715.16	17693.94
715.25	19552.06
715.34	20220.93
715.43	20232.91
715.52	18996.55
715.61	17006.43
715.70	14509.55
715.79	11822.51
715.88	9169.88
715.97	7434.64
716.06	6364.78
716.15	5848.59
716.24	5588.91
716.33	5495.52
716.42	5335.47
716.51	5231.33
716.60	4847.85
716.69	4515.36
716.78	4023.34
716.87	3638.83
716.96	3340.54
717.05	3196.78
717.13	3055.77
717.22	3108.20
717.31	3104.41
717.40	3135.95
717.49	3070.93
717.58	3084.86
717.67	3087.21
717.76	3158.58
717.85	3151.82
717.94	3184.49
718.03	3112.20
718.12	3027.21
718.21	2985.43
718.30	2942.21
718.39	2767.32
718.48	2741.92
718.57	2843.60
718.66	2876.27
718.75	2956.75
718.84	2964.43
718.93	2917.43
719.02	3013.07
719.10	3003.86
719.19	3072.26
719.28	3096.63
719.37	3231.08
719.46	3294.87
719.55	3533.67
719.64	3562.34
719.73	3575.86
719.82	3632.48
719.91	3808.91
720.00	3866.26
720.09	3986.78
720.18	4109.45
720.27	4391.66
720.36	4502.36
720.44	4586.84
720.53	4592.57
720.62	4733.98
720.71	4874.47
720.80	5003.49
720.89	5216.48
720.98	5481.70
721.07	5645.12
721.16	5903.88
721.25	5993.18
721.34	6091.89
721.43	6130.29
721.52	6338.05
721.60	6693.79
721.69	7137.38
721.78	7213.25
721.87	7594.99
721.96	7819.35
722.05	8111.19
722.14	8194.95
722.23	8441.01
722.32	8702.43
722.41	9391.78
722.50	9745.36
722.58	10032.28
722.67	10194.58
722.76	10647.39
722.85	10648.52
722.94	11011.31
723.03	11035.99
723.12	11400.43
723.21	11419.99
723.30	11673.63
723.38	11490.13
723.47	11568.46
723.56	11560.17
723.65	11943.04
723.74	12019.53
723.83	12161.45
723.92	11822.31
724.01	11712.54
724.10	11105.83
724.18	10778.46
724.27	10347.57
724.36	10369.48
724.45	10130.28
724.54	10393.03
724.63	10401.84
724.72	10759.31
724.81	11005.07
724.89	11299.46
724.98	11560.78
725.07	11897.16
725.16	12027.93
725.25	12023.93
725.34	11652.53
725.43	11449.37
725.52	11135.32
725.60	11059.44
725.69	10956.43
725.78	11419.17
725.87	11950.20
725.96	12644.67
726.05	12677.34
726.14	12627.47
726.22	11748.07
726.31	11191.43
726.40	10258.89
726.49	9544.35
726.58	9138.34
726.67	9242.28
726.76	9276.79
726.84	9714.03
726.93	9992.76
727.02	10479.25
727.11	11075.62
727.20	11419.68
727.29	11452.65
727.38	11113.30
727.46	10266.36
727.55	9384.92
727.64	8205.39
727.73	7224.00
727.82	6503.73
727.91	6167.56
727.99	6023.28
728.08	6169.51
728.17	6325.97
728.26	6555.34
728.35	6605.42
728.44	6682.01
728.52	6757.89
728.61	6825.68
728.70	6787.79
728.79	6826.60
728.88	6699.52
728.97	6803.45
729.05	6531.79
729.14	6324.95
729.23	6094.55
729.32	5917.20
729.41	5586.55
729.49	5457.73
729.58	5382.98
729.67	5535.05
729.76	5546.51
729.85	5602.42
729.94	5546.92
730.02	5637.34
730.11	5750.49
730.20	5972.80
730.29	5900.20
730.38	6083.08
730.46	6302.01
730.55	6576.44
730.64	6716.01
730.73	6740.17
730.82	6689.28
730.90	6975.28
730.99	7134.61
731.08	7315.55
731.17	7310.53
731.26	7715.72
731.34	8027.12
731.43	8305.95
731.52	8272.67
731.61	8473.98
731.70	8682.98
731.78	8887.47
731.87	8995.40
731.96	9477.38
732.05	9930.81
732.13	10385.97
732.22	10602.74
732.31	10966.98
732.40	11099.27
732.49	11327.93
732.57	11297.31
732.66	11984.82
732.75	12655.32
732.84	13079.45
732.93	13320.81
733.01	14009.34
733.10	14307.52
733.19	14859.55
733.28	14731.65
733.36	15261.46
733.45	15934.43
733.54	17071.46
733.63	17481.05
733.71	17968.26
733.80	18348.98
733.89	19084.71
733.98	19325.25
734.07	19849.22
734.15	20056.07
734.24	20768.35
734.33	21098.58
734.42	21390.21
734.50	20746.95
734.59	20932.60
734.68	20487.98
734.77	21007.86
734.85	21025.88
734.94	21603.10
735.03	21027.93
735.12	20943.96
735.20	19835.91
735.29	19189.88
735.38	17772.99
735.47	17133.20
735.55	16473.86
735.64	16546.15
735.73	16425.73
735.82	17003.67
735.90	17340.87
735.99	17778.01
736.08	18287.13
736.17	18725.09
736.25	19119.94
736.34	19917.83
736.43	19994.01
736.51	19933.49
736.60	19275.89
736.69	18690.89
736.78	18199.38
736.86	17990.48
736.95	17799.72
737.04	18340.69
737.13	19459.08
737.21	20857.44
737.30	21216.44
737.39	21078.72
737.47	19987.36
737.56	18651.26
737.65	16972.85
737.74	15482.54
737.82	14271.99
737.91	14100.47
738.00	14162.22
738.08	14635.60
738.17	15008.95
738.26	15846.77
738.35	16618.65
738.43	17793.78
738.52	18462.54
738.61	18611.33
738.69	17610.18
738.78	16243.98
738.87	14223.76
738.96	12287.10
739.04	10170.72
739.13	8764.69
739.22	8124.29
739.30	8057.84
739.39	7993.84
739.48	8186.35
739.56	8336.26
739.65	8687.38
739.74	8838.21
739.82	8991.81
739.91	8874.87
740.00	9084.69
740.09	9043.93
740.17	9171.83
740.26	9200.81
740.35	9314.16
740.43	9060.83
740.52	8975.02
740.61	8641.10
740.69	8357.04
740.78	7899.63
740.87	7659.51
740.95	7474.06
741.04	7644.15
741.13	7679.17
741.21	7850.79
741.30	7859.80
741.39	8038.99
741.47	8203.45
741.56	8695.98
741.65	9052.33
741.73	9713.41
741.82	10210.56
741.91	11135.11
741.99	11822.62
742.08	12301.53
742.17	12241.73
742.25	12309.21
742.34	12140.26
742.43	12112.30
742.51	11695.74
742.60	11607.27
742.69	11428.59
742.77	11639.84
742.86	11945.39
742.95	12054.34
743.03	11978.26
743.12	12243.58
743.21	12490.05
743.29	13022.62
743.38	13097.17
743.47	14011.18
743.55	14764.52
743.64	15506.09
743.73	16053.11
743.81	16418.98
743.90	16961.17
743.98	17303.29
744.07	17992.33
744.16	19056.35
744.24	20325.27
744.33	21086.50
744.42	21585.18
744.50	22238.79
744.59	22341.29
744.68	22548.75
744.76	22157.59
744.85	22345.39
744.93	23049.99
745.02	24616.17
745.11	25611.28
745.19	27079.68
745.28	27159.04
745.37	28043.45
745.45	28411.06
745.54	29234.75
745.62	29717.05
745.71	30108.42
745.80	30574.54
745.88	31966.74
745.97	31946.57
746.05	32003.20
746.14	31610.70
746.23	31982.62
746.31	32213.73
746.40	33249.39
746.49	33874.43
746.57	35432.83
746.66	35899.05
746.74	36137.33
746.83	34986.78
746.92	33884.46
747.00	31746.49
747.09	30389.09
747.17	28811.75
747.26	27624.74
747.35	27049.88
747.43	27365.47
747.52	27705.13
747.60	28622.92
747.69	28831.30
747.78	29821.70
747.86	30211.53
747.95	31486.19
748.03	31819.80
748.12	32784.81
748.20	32321.25
748.29	31457.62
748.38	30673.86
748.46	29885.91
748.55	29096.62
748.63	29299.78
748.72	29614.55
748.81	31807.21
748.89	33972.93
748.98	35537.79
749.06	35293.67
749.15	34470.80
749.23	32048.36
749.32	30194.23
749.41	27299.73
749.49	25282.99
749.58	23868.77
749.66	23914.34
749.75	24311.64
749.83	25623.16
749.92	26383.47
750.01	27971.77
750.09	29301.72
750.18	31293.06
750.26	32582.26
750.35	33211.91
750.43	31677.98
750.52	29856.31
750.60	26938.78
750.69	24549.10
750.78	21607.40
750.86	20047.26
750.95	19499.63
751.03	19247.83
751.12	18468.07
751.20	17695.06
751.29	16496.39
751.37	15349.22
751.46	14160.17
751.55	13229.16
751.63	12370.04
751.72	12089.06
751.80	11614.44
751.89	11510.51
751.97	11224.61
752.06	11204.23
752.14	11126.51
752.23	10922.02
752.31	10524.92
752.40	10101.50
752.48	9389.42
752.57	8756.91
752.65	8071.04
752.74	7611.48
752.83	7235.58
752.91	7166.56
753.00	7137.38
753.08	7217.45
753.17	7195.33
753.25	7267.93
753.34	7214.38
753.42	7408.94
753.51	7507.24
753.59	7777.16
753.68	7900.14
753.76	8374.25
753.85	8674.07
753.93	9253.75
754.02	9121.86
754.10	9250.67
754.19	9262.55
754.27	9531.86
754.36	9591.97
754.44	9888.82
754.53	10125.26
754.61	10629.27
754.70	11132.96
754.78	11977.95
754.87	11993.52
754.95	12191.66
755.04	12071.34
755.12	12727.10
755.21	12864.83
755.29	13307.91
755.38	13588.17
755.46	14617.99
755.55	15261.57
755.63	15974.87
755.72	16205.78
755.80	16498.64
755.89	16712.55
755.97	16927.69
756.06	17343.74
756.14	18258.05
756.23	19218.24
756.31	20226.66
756.40	20584.54
756.48	21775.64
756.57	22170.70
756.65	22791.23
756.74	22608.55
756.82	23523.79
756.91	23640.32
756.99	25186.84
757.08	26822.14
757.16	28116.26
757.25	28516.84
757.33	29548.61
757.41	29915.50
757.50	30548.32
757.58	31076.80
757.67	31625.25
757.75	32047.64
757.84	33319.63
757.92	33953.89
758.01	34701.09
758.09	33852.10
758.18	33744.69
758.26	33901.67
758.35	34656.03
758.43	34719.32
758.51	36239.93
758.60	36967.99
758.68	38039.38
758.77	37312.15
758.85	36864.77
758.94	35177.86
759.02	33230.24
759.11	31348.87
759.19	30290.48
759.27	29376.88
759.36	29528.23
759.44	29836.34
759.53	31102.81
759.61	30943.37
759.70	31907.25
759.78	32626.70
759.87	33549.31
759.95	33926.14
760.03	35177.86
760.12	35602.81
760.20	37317.57
760.29	37383.42
760.37	37802.53
760.46	37049.60
760.54	37176.67
760.62	37124.76
760.71	37919.78
760.79	38777.57
760.88	40409.39
760.96	42032.92
761.05	44163.73
761.13	44203.56
761.21	43381.10
761.30	39165.46
761.38	35569.22
761.47	31339.96
761.55	27504.43
761.64	23897.24
761.72	21917.26
761.80	21024.75
761.89	21276.86
761.97	21804.42
762.06	23039.55
762.14	23983.45
762.22	25605.65
762.31	27275.97
762.39	29830.00
762.48	30938.05
762.56	30850.29
762.64	28748.05
762.73	26082.52
762.81	22242.07
762.90	18572.00
762.98	14429.27
763.06	11410.36
763.15	10000.54
763.23	9647.16
763.32	9439.09
763.40	9558.59
763.48	9563.81
763.57	9885.55
763.65	10054.91
763.74	10416.58
763.82	10665.41
763.90	10712.82
763.99	10721.63
764.07	10664.49
764.15	10461.95
764.24	10373.37
764.32	10292.78
764.41	10240.97
764.49	10132.73
764.57	10067.51
764.66	9588.90
764.74	9093.08
764.82	8265.40
764.91	7724.84
764.99	6889.88
765.08	6387.41
765.16	6006.08
765.24	5898.87
765.33	5936.45
765.41	5969.93
765.49	5861.80
765.58	5773.63
765.66	5686.49
765.74	5774.45
765.83	5840.19
765.91	6056.66
766.00	6210.87
766.08	6458.88
766.16	6673.92
766.25	7000.78
766.33	6995.14
766.41	6906.47
766.50	6843.70
766.58	7008.15
766.66	7067.64
766.75	7276.13
766.83	7441.50
766.91	7637.18
767.00	7987.90
767.08	8467.22
767.16	8878.15
767.25	9139.67
767.33	8834.53
767.41	8891.36
767.50	9011.78
767.58	9423.32
767.66	9432.94
767.75	9895.07
767.83	10167.14
767.91	10881.68
768.00	11330.59
768.08	11729.74
768.16	11780.22
768.25	11903.00
768.33	11923.99
768.41	12225.45
768.50	12304.09
768.58	13148.47
768.66	13682.07
768.75	14284.38
768.83	14741.79
768.91	15456.84
769.00	15696.86
769.08	16049.32
769.16	16103.69
769.25	16410.48
769.33	16682.45
769.41	17352.85
769.50	18253.85
769.58	19472.60
769.66	20077.67
769.74	20676.50
769.83	20868.19
769.91	21679.08
769.99	21820.29
770.08	22301.25
770.16	22592.06
770.24	23395.18
770.33	23793.61
770.41	24649.76
770.49	24828.86
770.58	24478.76
770.66	23708.11
770.74	23896.83
770.82	24109.20
770.91	24369.70
770.99	24519.82
771.07	25704.36
771.16	26749.24
771.24	27234.50
771.32	26588.37
771.40	26034.29
771.49	24456.64
771.57	22825.12
771.65	21257.71
771.74	20226.56
771.82	19047.85
771.90	18887.70
771.98	18815.82
772.07	19743.55
772.15	19619.34
772.23	19959.71
772.31	20589.15
772.40	21286.18
772.48	21349.05
772.56	21731.41
772.65	21966.51
772.73	22710.13
772.81	22995.62
772.89	23749.68
772.98	23296.57
773.06	22687.30
773.14	21924.22
773.22	21525.99
773.31	20840.74
773.39	20571.13
773.47	20503.34
773.55	22326.14
773.64	24015.40
773.72	25323.95
773.80	26468.05
773.88	25876.09
773.97	24483.77
774.05	22923.43
774.13	20517.88
774.21	18399.87
774.30	16420.00
774.38	15027.48
774.46	14789.71
774.54	15071.41
774.63	15586.07
774.71	16104.82
774.79	16930.97
774.87	18369.56
774.96	19617.08
775.04	21498.04
775.12	22787.13
775.20	23187.61
775.29	21796.43
775.37	20026.06
775.45	17409.78
775.53	14405.41
775.61	11163.27
775.70	8488.22
775.78	6960.43
775.86	6254.50
775.94	5936.45
776.03	5887.91
776.11	6022.46
776.19	6302.01
776.27	6361.91
776.36	6707.51
776.44	6990.54
776.52	7334.39
776.60	7371.36
776.68	7649.16
776.77	7625.00
776.85	7632.57
776.93	7226.26
777.01	6970.06
777.09	6677.40
777.18	6377.07
777.26	6159.57
777.34	5978.33
777.42	5699.91
777.50	5332.50
777.59	4802.08
777.67	4324.18
777.75	3820.18
777.83	3341.47
777.91	2944.06
778.00	2859.99
778.08	2745.71
778.16	2773.15
778.24	2753.80
778.32	2856.71
778.41	2880.88
778.49	3097.45
778.57	3302.76
778.65	3558.14
778.73	3638.52
778.82	3801.03
778.90	3795.19
778.98	3798.67
779.06	3610.47
779.14	3445.81
779.22	3214.18
779.31	3124.79
779.39	2961.98
779.47	2887.53
779.55	2789.03
779.63	2826.40
779.72	2764.86
779.80	2858.55
779.88	2818.21
779.96	2990.44
780.04	3025.26
780.12	3116.80
780.21	3143.53
780.29	3225.35
780.37	3304.30
780.45	3417.65
780.53	3476.73
780.61	3534.59
780.70	3572.58
780.78	3668.12
780.86	3791.51
780.94	3890.94
781.02	3831.03
781.10	3859.50
781.18	3839.84
781.27	3787.51
781.35	3748.40
781.43	3683.99
781.51	3654.60
781.59	3628.80
781.67	3557.53
781.75	3628.80
781.84	3555.27
781.92	3607.39
782.00	3530.29
782.08	3626.34
782.16	3803.08
782.24	4190.04
782.32	4722.00
782.41	5488.04
782.49	6417.21
782.57	7759.65
782.65	9082.43
782.73	10412.28
782.81	11072.04
782.89	10949.57
782.98	10234.11
783.06	9534.73
783.14	8277.89
783.22	6757.68
783.30	5318.68
783.38	4665.17
783.46	4148.16
783.54	4020.37
783.63	3792.84
783.71	3766.62
783.79	3643.85
783.87	3673.95
783.95	3716.55
784.03	3793.55
784.11	3759.97
784.19	3869.33
784.27	3860.01
784.36	3952.17
784.44	3879.57
784.52	3924.11
784.60	3852.64
784.68	3878.65
784.76	3892.37
784.84	3764.47
784.92	3734.98
785.00	3898.92
785.08	3950.74
785.17	4036.85
785.25	4029.58
785.33	4114.78
785.41	4021.29
785.49	3969.07
785.57	3872.09
785.65	3930.56
785.73	3935.48
785.81	4096.14
785.89	4127.78
785.98	4314.87
786.06	4305.14
786.14	4397.19
786.22	4318.04
786.30	4307.70
786.38	4269.91
786.46	4271.14
786.54	4206.63
786.62	4325.62
786.70	4418.59
786.78	4465.49
786.86	4370.26
786.94	4428.83
787.03	4311.28
787.11	4267.25
787.19	4121.03
787.27	4043.10
787.35	4051.50
787.43	4156.66
787.51	4193.52
787.59	4466.42
787.67	4665.07
787.75	4884.00
787.83	5021.72
787.91	5165.59
787.99	5241.06
788.07	5411.14
788.15	5431.83
788.23	5633.96
788.32	5690.49
788.40	5755.20
788.48	5768.62
788.56	5615.84
788.64	5180.54
788.72	4778.94
788.80	4252.71
788.88	3809.12
788.96	3408.84
789.04	3185.72
789.12	2989.73
789.20	2954.60
789.28	2952.04
789.36	2986.14
789.44	2957.98
789.52	3009.29
789.60	2855.38
789.68	2756.16
789.76	2536.92
789.84	2404.52
789.92	2164.81
790.00	2016.94
790.08	1925.40
790.16	1843.27
790.25	1796.89
790.33	1744.05
790.41	1670.53
790.49	1628.44
790.57	1631.92
790.65	1605.30
790.73	1549.70
790.81	1595.98
790.89	1595.98
790.97	1666.74
791.05	1726.54
791.13	1772.21
791.21	1764.12
791.29	1745.28
791.37	1699.20
791.45	1573.66
791.53	1407.47
791.61	1319.40
791.69	1226.94
791.77	1209.94
791.85	1134.47
791.93	1117.88
792.01	1093.31
792.09	1105.70
792.17	1100.99
792.25	1102.01
792.33	1126.38
792.41	1172.15
792.49	1190.07
792.57	1239.12
792.65	1254.48
792.73	1244.65
792.81	1204.31
792.89	1153.21
792.97	1088.39
793.05	1115.73
793.13	1140.62
793.21	1201.13
793.29	1201.34
793.37	1201.65
793.45	1217.52
793.53	1245.68
793.61	1261.96
793.69	1304.66
793.77	1284.79
793.85	1360.36
793.93	1341.42
794.01	1391.70
794.09	1360.26
794.16	1342.03
794.24	1325.65
794.32	1344.29
794.40	1403.98
794.48	1423.24
794.56	1419.14
794.64	1461.02
794.72	1428.66
794.80	1493.07
794.88	1577.65
794.96	1597.83
795.04	1611.85
795.12	1647.90
795.20	1684.56
795.28	1727.36
795.36	1711.28
795.44	1703.40
795.52	1763.20
795.60	1791.67
795.68	1840.00
795.76	1912.19
795.84	1954.58
795.92	2035.78
796.00	2029.84
796.07	2080.74
796.15	2070.70
796.23	2111.35
796.31	2122.72
796.39	2208.63
796.47	2204.43
796.55	2365.61
796.63	2386.81
796.71	2449.88
796.79	2481.11
796.87	2517.77
796.95	2562.73
797.03	2674.44
797.11	2723.29
797.19	2805.61
797.27	2925.52
797.34	3091.51
797.42	3186.95
797.50	3344.03
797.58	3359.69
797.66	3383.35
797.74	3399.12
797.82	3411.51
797.90	3458.00
797.98	3574.42
798.06	3585.48
798.14	3810.96
798.22	3844.55
798.29	4036.55
798.37	4061.22
798.45	4236.84
798.53	4244.82
798.61	4329.92
798.69	4374.15
798.77	4548.44
798.85	4662.82
798.93	4830.34
799.01	5040.87
799.09	5358.00
799.16	5872.96
799.24	6491.24
799.32	7036.62
799.40	7429.72
799.48	7718.28
799.56	7759.34
799.64	7325.99
799.72	6659.18
799.80	5826.16
799.88	4890.04
799.95	4022.31
800.03	3393.69
800.11	2943.96
800.19	2782.68
800.27	2654.17
800.35	2531.49
800.43	2437.80
800.51	2431.04
800.58	2343.08
800.66	2277.34
800.74	2197.98
800.82	2180.27
800.90	2093.95
800.98	2079.20
801.06	2031.99
801.14	1990.01
801.21	1969.63
801.29	2072.85
801.37	2092.82
801.45	2207.20
801.53	2221.43
801.61	2298.64
801.69	2363.66
801.77	2413.63
801.84	2361.41
801.92	2364.99
802.00	2317.99
802.08	2267.72
802.16	2149.24
802.24	2071.42
802.32	1999.33
802.39	1975.68
802.47	2022.27
802.55	2080.33
802.63	2160.20
802.71	2293.83
802.79	2377.18
802.87	2479.99
802.94	2446.20
803.02	2440.26
803.10	2383.32
803.18	2303.45
803.26	2109.82
803.34	2035.48
803.41	1923.76
803.49	1930.72
803.57	1885.56
803.65	1890.79
803.73	1897.65
803.81	1939.22
803.88	1910.14
803.96	1963.59
804.04	1982.43
804.12	1980.28
804.20	1991.04
804.28	2024.72
804.35	2060.87
804.43	2135.93
804.51	2145.86
804.59	2121.90
804.67	2057.59
804.75	2041.21
804.82	1874.10
804.90	1742.51
804.98	1592.81
805.06	1491.95
805.14	1517.34
805.21	1589.12
805.29	1615.13
805.37	1695.82
805.45	1749.48
805.53	1837.64
805.60	1846.45
805.68	1813.68
805.76	1744.15
805.84	1741.70
805.92	1727.67
805.99	1746.30
806.07	1698.48
806.15	1702.58
806.23	1698.07
806.31	1705.34
806.38	1668.07
806.46	1697.46
806.54	1582.16
806.62	1618.92
806.70	1577.04
806.77	1491.54
806.85	1423.24
806.93	1436.55
807.01	1430.51
807.09	1436.55
807.16	1413.30
807.24	1433.48
807.32	1455.18
807.40	1463.27
807.48	1415.97
807.55	1433.58
807.63	1469.11
807.71	1514.98
807.79	1495.94
807.86	1529.53
807.94	1558.30
808.02	1576.22
808.10	1552.46
808.17	1570.28
808.25	1558.50
808.33	1614.31
808.41	1606.22
808.49	1610.22
808.56	1668.79
808.64	1693.87
808.72	1772.93
808.80	1899.80
808.87	2006.80
808.95	2127.74
809.03	2109.41
809.11	2247.34
809.18	2288.91
809.26	2307.65
809.34	2181.70
809.42	2187.74
809.49	2125.07
809.57	2200.64
809.65	2150.47
809.73	2160.30
809.80	2202.39
809.88	2237.41
809.96	2221.23
810.04	2274.99
810.11	2337.24
810.19	2374.01
810.27	2426.54
810.35	2545.42
810.42	2635.02
810.50	2751.04
810.58	2793.33
810.66	2936.89
810.73	2949.38
810.81	2964.64
810.89	3010.10
810.96	3088.13
811.04	2994.85
811.12	3124.79
811.20	3289.04
811.27	3523.12
811.35	3740.31
811.43	4336.88
811.50	4714.42
811.58	5294.82
811.66	5330.86
811.74	5483.95
811.81	5165.18
811.89	4799.52
811.97	4143.14
812.05	3440.79
812.12	2743.25
812.20	2199.01
812.28	1684.86
812.35	1471.77
812.43	1253.15
812.51	1180.65
812.58	1106.72
812.66	1128.12
812.74	1116.14
812.82	1109.59
812.89	1144.51
812.97	1085.83
813.05	1113.38
813.12	1099.76
813.20	1057.67
813.28	1066.58
813.35	1030.74
813.43	1006.68
813.51	1023.57
813.59	1064.33
813.66	1025.01
813.74	1072.42
813.82	1026.95
813.89	1031.46
813.97	1011.80
814.05	995.21
814.12	1007.91
814.20	996.85
814.28	1031.87
814.35	1085.94
814.43	1117.17
814.51	1149.22
814.58	1153.31
814.66	1174.00
814.74	1150.34
814.81	1106.52
814.89	1082.86
814.97	1085.12
815.04	1069.14
815.12	1064.53
815.20	1019.68
815.27	1027.98
815.35	1035.35
815.43	1075.80
815.50	1044.05
815.58	1074.06
815.66	1093.62
815.73	1136.52
815.81	1142.36
815.89	1131.81
815.96	1107.54
816.04	1121.77
816.12	1093.31
816.19	1046.00
816.27	1025.62
816.35	1031.77
816.42	1082.56
816.50	1092.39
816.58	1132.73
816.65	1207.79
816.73	1189.56
816.80	1197.24
816.88	1170.52
816.96	1136.83
817.03	1143.69
817.11	1135.70
817.19	1130.68
817.26	1154.44
817.34	1166.42
817.42	1191.71
817.49	1202.26
817.57	1210.45
817.64	1223.97
817.72	1185.77
817.80	1204.10
817.87	1202.46
817.95	1189.77
818.03	1234.00
818.10	1289.50
818.18	1386.58
818.25	1623.83
818.33	1800.27
818.41	1977.21
818.48	2136.65
818.56	2294.75
818.63	2414.66
818.71	2420.80
818.79	2245.29
818.86	2054.11
818.94	1877.68
819.02	1684.25
819.09	1483.55
819.17	1224.07
819.24	1107.23
819.32	1022.24
819.40	945.96
819.47	921.48
819.55	947.29
819.62	939.10
819.70	939.20
819.78	945.34
819.85	1018.05
819.93	1055.63
820.00	1132.53
820.08	1127.61
820.16	1139.90
820.23	1099.76
820.31	1096.38
820.38	991.93
820.46	940.02
820.53	906.53
820.61	890.05
820.69	838.03
820.76	818.16
820.84	870.69
820.91	900.29
820.99	879.09
821.07	936.84
821.14	994.29
821.22	1040.06
821.29	1181.88
821.37	1417.81
821.44	1680.26
821.52	1853.62
821.60	1948.13
821.67	2023.91
821.75	1987.45
821.82	1917.21
821.90	1693.26
821.97	1424.87
822.05	1347.36
822.12	1403.17
822.20	1363.33
822.28	1396.10
822.35	1293.19
822.43	1258.37
822.50	1166.52
822.58	1077.13
822.65	877.55
822.73	809.56
822.80	770.75
822.88	747.61
822.96	736.35
823.03	761.13
823.11	725.60
823.18	749.25
823.26	764.92
823.33	778.74
823.41	782.53
823.48	786.93
823.56	764.92
823.63	769.32
823.71	822.77
823.79	838.64
823.86	812.74
823.94	896.60
824.01	1001.56
824.09	1158.64
824.16	1161.30
824.24	1234.41
824.31	1275.78
824.39	1278.96
824.46	1214.75
824.54	1103.24
824.61	1035.86
824.69	1002.69
824.76	947.08
824.84	956.40
824.91	936.64
824.99	984.56
825.06	981.90
825.14	961.73
825.21	955.17
825.29	970.63
825.36	944.63
825.44	958.45
825.51	944.83
825.59	957.12
825.67	941.14
825.74	979.03
825.82	977.29
825.89	1019.99
825.97	1069.65
826.04	1073.65
826.12	1091.87
826.19	1118.91
826.27	1123.00
826.34	1137.24
826.41	1117.27
826.49	1099.86
826.56	1103.96
826.64	1075.18
826.71	1041.39
826.79	1040.27
826.86	1014.56
826.94	1039.86
827.01	1012.31
827.09	1023.88
827.16	1059.52
827.24	1094.33
827.31	1110.61
827.39	1172.05
827.46	1182.19
827.54	1248.75
827.61	1270.46
827.69	1374.49
827.76	1478.74
827.84	1647.80
827.91	1674.01
827.99	1818.90
828.06	1893.45
828.14	1916.39
828.21	1914.75
828.28	1808.77
828.36	1641.55
828.43	1526.86
828.51	1358.52
828.58	1216.29
828.66	1039.86
828.73	957.22
828.81	872.13
828.88	882.47
828.96	856.05
829.03	883.90
829.11	894.96
829.18	942.78
829.25	968.59
829.33	1028.08
829.40	972.27
829.48	1015.49
829.55	1012.93
829.63	1029.41
829.70	1028.80
829.78	1001.56
829.85	982.21
829.92	1020.20
830.00	999.31
830.07	990.40
830.15	996.95
830.22	1018.76
830.30	1020.50
830.37	1044.46
830.44	1022.35
830.52	1033.30
830.59	1024.29
830.67	1017.74
830.74	1042.72
830.82	1013.95
830.89	1016.61
830.96	1009.14
831.04	1019.27
831.11	1082.76
831.19	1078.46
831.26	1083.17
831.34	1074.26
831.41	1063.82
831.48	1061.56
831.56	1072.93
831.63	1026.54
831.71	1038.83
831.78	1041.49
831.85	1045.08
831.93	1030.23
832.00	1037.19
832.08	1044.05
832.15	1063.41
832.22	1040.98
832.30	1048.46
832.37	997.57
832.45	956.50
832.52	975.04
832.59	1019.48
832.67	1007.40
832.74	981.18
832.82	1036.27
832.89	1073.24
832.96	1111.02
833.04	1140.72
833.11	1174.61
833.19	1186.49
833.26	1187.21
833.33	1192.02
833.41	1173.59
833.48	1173.18
833.56	1120.55
833.63	1125.15
833.70	1094.23
833.78	1073.65
833.85	1093.41
833.92	1047.23
834.00	1024.09
834.07	1011.18
834.15	960.70
834.22	950.56
834.29	914.62
834.37	898.65
834.44	908.17
834.51	914.52
834.59	955.17
834.66	952.82
834.73	997.57
834.81	1032.89
834.88	1064.33
834.96	1111.94
835.03	1128.02
835.10	1084.81
835.18	1100.89
835.25	1069.96
835.32	1070.58
835.40	1033.92
835.47	999.72
835.54	1012.11
835.62	1006.17
835.69	1036.68
835.76	1040.57
835.84	1053.48
835.91	1057.57
835.98	1072.21
836.06	1078.46
836.13	1110.61
836.21	1139.49
836.28	1138.36
836.35	1177.17
836.43	1167.65
836.50	1180.45
836.57	1171.75
836.65	1155.26
836.72	1131.61
836.79	1168.47
836.87	1156.90
836.94	1160.69
837.01	1185.57
837.08	1181.68
837.16	1243.22
837.23	1195.60
837.30	1231.65
837.38	1227.45
837.45	1243.63
837.52	1204.41
837.60	1266.26
837.67	1231.03
837.74	1284.18
837.82	1304.97
837.89	1288.27
837.96	1297.08
838.04	1372.14
838.11	1376.85
838.18	1350.23
838.26	1332.00
838.33	1307.94
838.40	1269.02
838.47	1294.83
838.55	1263.90
838.62	1278.03
838.69	1303.33
838.77	1341.52
838.84	1364.97
838.91	1426.62
838.99	1463.17
839.06	1455.39
839.13	1456.92
839.20	1536.80
839.28	1522.05
839.35	1591.48
839.42	1648.41
839.50	1803.44
839.57	1944.24
839.64	2115.24
839.71	2254.10
839.79	2395.41
839.86	2472.10
839.93	2599.28
840.01	2622.63
840.08	2592.32
840.15	2452.24
840.22	2362.54
840.30	2117.60
840.37	1949.46
840.44	1697.46
840.51	1472.59
840.59	1239.12
840.66	1126.28
840.73	1010.88
840.81	991.01
840.88	954.15
840.95	944.52
841.02	925.07
841.10	941.55
841.17	932.03
841.24	897.32
841.31	884.11
841.39	869.87
841.46	894.96
841.53	968.89
841.60	1021.94
841.68	1063.71
841.75	1075.29
841.82	1093.31
841.89	1082.76
841.97	1046.72
842.04	1028.18
842.11	996.85
842.18	1017.94
842.26	1067.40
842.33	1044.46
842.40	1085.83
842.47	1086.86
842.55	1092.49
842.62	1061.05
842.69	1087.37
842.76	1101.30
842.84	1159.36
842.91	1225.81
842.98	1286.94
843.05	1346.74
843.12	1362.92
843.20	1346.13
843.27	1346.23
843.34	1349.10
843.41	1319.40
843.49	1295.14
843.56	1286.02
843.63	1278.65
843.70	1327.60
843.77	1333.02
843.85	1378.28
843.92	1381.97
843.99	1452.62
844.06	1489.59
844.14	1556.97
844.21	1595.06
844.28	1636.43
844.35	1622.30
844.42	1660.29
844.50	1648.92
844.57	1686.71
844.64	1691.72
844.71	1731.35
844.78	1727.77
844.86	1761.87
844.93	1807.74
845.00	1813.17
845.07	1846.86
845.14	1856.48
845.22	1849.62
845.29	1867.65
845.36	1906.45
845.43	1895.91
845.50	1906.35
845.57	1955.20
845.65	1980.80
845.72	2099.88
845.79	2167.67
845.86	2259.83
845.93	2330.90
846.01	2374.01
846.08	2402.68
846.15	2389.26
846.22	2395.20
846.29	2348.92
846.36	2287.89
846.44	2288.91
846.51	2385.27
846.58	2457.05
846.65	2561.80
846.72	2735.16
846.80	2912.11
846.87	3087.72
846.94	3298.87
847.01	3461.17
847.08	3602.58
847.15	3715.53
847.22	3696.38
847.30	3724.74
847.37	3670.06
847.44	3618.97
847.51	3500.80
847.58	3473.15
847.65	3358.05
847.73	3380.99
847.80	3363.48
847.87	3373.41
847.94	3361.74
848.01	3411.51
848.08	3424.00
848.15	3437.11
848.23	3408.54
848.30	3419.60
848.37	3304.40
848.44	3343.51
848.51	3331.23
848.58	3364.71
848.65	3260.57
848.73	3302.96
848.80	3310.64
848.87	3487.38
848.94	3524.96
849.01	3610.67
849.08	3597.46
849.15	3652.76
849.23	3671.60
849.30	3727.71
849.37	3614.46
849.44	3597.26
849.51	3463.93
849.58	3333.58
849.65	3214.90
849.72	3180.19
849.79	3102.88
849.87	3102.16
849.94	3081.89
850.01	3071.75
850.08	3098.47
850.15	3263.95
850.22	3356.93
850.29	3429.63
850.36	3401.98
850.44	3508.78
850.51	3588.04
850.58	3675.69
850.65	3710.71
850.72	3710.82
850.79	3771.23
850.86	3992.52
850.93	4060.51
851.00	4121.03
851.07	4074.64
851.15	4090.61
851.22	3968.35
851.29	3904.76
851.36	3776.35
851.43	3569.71
851.50	3502.03
851.57	3617.53
851.64	3572.68
851.71	3642.72
851.78	3741.13
851.85	3991.80
851.92	4160.96
852.00	4486.28
852.07	4571.89
852.14	4691.38
852.21	4756.20
852.28	4755.59
852.35	4612.44
852.42	4490.58
852.49	4255.78
852.56	4064.09
852.63	3952.78
852.70	3844.24
852.77	3813.52
852.84	3810.04
852.92	3803.49
852.99	3811.07
853.06	3860.93
853.13	3977.05
853.20	4058.97
853.27	4235.51
853.34	4420.03
853.41	4664.04
853.48	4782.01
853.55	4984.45
853.62	5145.01
853.69	5197.54
853.76	5298.10
853.83	5156.27
853.90	5049.57
853.97	4909.29
854.04	4647.46
854.11	4401.80
854.18	4009.10
854.26	3671.50
854.33	3286.58
854.40	2985.22
854.47	2716.02
854.54	2529.86
854.61	2318.61
854.68	2258.09
854.75	2178.42
854.82	2227.37
854.89	2233.00
854.96	2406.47
855.03	2527.50
855.10	2746.84
855.17	3048.91
855.24	3436.90
855.31	3845.78
855.38	4045.76
855.45	4058.05
855.52	4006.03
855.59	3973.78
855.66	3852.84
855.73	3626.75
855.80	3302.14
855.87	2985.32
855.94	2825.07
856.01	2722.98
856.08	2558.63
856.15	2351.48
856.22	2173.00
856.29	1974.75
856.36	1871.64
856.43	1756.13
856.50	1684.66
856.57	1601.41
856.64	1578.06
856.71	1560.55
856.78	1584.62
856.85	1547.85
856.92	1515.80
856.99	1431.02
857.06	1331.69
857.13	1261.86
857.20	1237.59
857.27	1194.68
857.34	1266.57
857.41	1287.87
857.48	1395.69
857.55	1456.72
857.62	1515.91
857.69	1528.91
857.76	1510.38
857.83	1460.92
857.90	1398.25
857.97	1342.44
858.04	1322.37
858.11	1343.06
858.18	1433.89
858.25	1495.43
858.32	1575.91
858.39	1571.51
858.46	1629.06
858.53	1572.43
858.60	1583.39
858.67	1486.21
858.74	1421.90
858.81	1465.63
858.88	1581.65
858.95	1751.01
859.02	1910.65
859.09	1983.66
859.16	2137.67
859.23	2186.41
859.29	2258.40
859.36	2130.71
859.43	2052.99
859.50	1958.27
859.57	1969.63
859.64	1999.33
859.71	2054.52
859.78	2074.59
859.85	2135.31
859.92	2098.14
859.99	2123.54
860.06	2059.95
860.13	2007.73
860.20	1989.40
860.27	2079.41
860.34	2232.59
860.41	2369.60
860.48	2461.35
860.54	2613.62
860.61	2606.04
860.68	2694.61
860.75	2621.91
860.82	2606.25
860.89	2584.13
860.96	2584.13
861.03	2555.46
861.10	2650.89
861.17	2656.63
861.24	2714.89
861.31	2698.20
861.38	2782.68
861.45	2776.84
861.51	2831.11
861.58	2884.05
861.65	3021.37
861.72	3125.20
861.79	3212.85
861.86	3265.38
861.93	3298.15
862.00	3296.92
862.07	3386.93
862.14	3377.31
862.21	3496.19
862.27	3554.66
862.34	3625.31
862.41	3715.53
862.48	3945.92
862.55	4059.59
862.62	4253.43
862.69	4261.72
862.76	4394.94
862.83	4508.81
862.90	4699.68
862.96	4594.52
863.03	4649.71
863.10	4622.47
863.17	4652.27
863.24	4684.01
863.31	4895.16
863.38	4872.12
863.45	5052.85
863.52	5206.04
863.58	5360.97
863.65	5381.55
863.72	5406.43
863.79	5348.17
863.86	5390.66
863.93	5332.60
864.00	5288.88
864.07	5293.38
864.13	5392.40
864.20	5562.80
864.27	5891.19
864.34	6019.08
864.41	6282.14
864.48	6406.56
864.55	6780.31
864.62	6815.54
864.68	6884.86
864.75	6832.13
864.82	6960.74
864.89	6923.06
864.96	7008.56
865.03	7044.30
865.10	7337.05
865.16	7519.32
865.23	7695.75
865.30	7780.75
865.37	8035.82
865.44	8284.85
865.51	8518.32
865.58	8693.63
865.64	8706.73
865.71	8772.06
865.78	8999.59
865.85	9130.15
865.92	9084.07
865.99	8996.62
866.05	8974.51
866.12	8793.47
866.19	8945.63
866.26	8914.50
866.33	8994.99
866.40	8726.50
866.46	8747.49
866.53	8791.93
866.60	9189.54
866.67	9361.27
866.74	9512.30
866.81	9407.65
866.87	9630.88
866.94	9620.54
867.01	9787.04
867.08	9485.68
867.15	9551.93
867.21	9193.74
867.28	8886.03
867.35	8503.78
867.42	8302.47
867.49	8157.98
867.56	8185.12
867.62	8195.97
867.69	8441.11
867.76	8402.00
867.83	8631.68
867.90	8879.89
867.96	9464.38
868.03	9632.72
868.10	9947.70
868.17	9721.20
868.24	9861.28
868.30	9894.25
868.37	10338.66
868.44	10248.04
868.51	10049.28
868.58	10040.27
868.64	10174.31
868.71	10380.23
868.78	10578.78
868.85	10498.20
868.92	10268.00
868.98	9952.82
869.05	9668.15
869.12	9376.01
869.19	8987.00
869.25	8255.98
869.32	7822.63
869.39	7534.07
869.46	7509.90
869.53	7447.13
869.59	7467.82
869.66	7442.63
869.73	7730.57
869.80	8095.62
869.86	8691.99
869.93	9021.61
870.00	9429.87
870.07	9578.35
870.14	9842.23
870.20	9683.10
870.27	9480.25
870.34	8997.85
870.41	8579.97
870.47	7928.71
870.54	7638.41
870.61	7229.94
870.68	7104.20
870.74	6912.00
870.81	6732.08
870.88	6559.95
870.95	6451.82
871.01	6381.88
871.08	6383.93
871.15	6256.13
871.22	6279.89
871.28	6255.42
871.35	6350.65
871.42	6384.24
871.49	6686.31
871.55	6768.02
871.62	7085.26
871.69	7316.16
871.76	7608.10
871.82	7900.55
871.89	8136.68
871.96	8088.45
872.02	8026.40
872.09	7572.36
872.16	7382.52
872.23	6830.18
872.29	6360.27
872.36	5706.87
872.43	5265.53
872.50	4802.49
872.56	4505.02
872.63	4165.16
872.70	3912.23
872.76	3618.35
872.83	3422.57
872.90	3175.89
872.97	3124.79
873.03	3025.05
873.10	3096.02
873.17	3051.37
873.23	3049.02
873.30	2999.56
873.37	3053.21
873.44	2988.60
873.50	2989.01
873.57	2859.89
873.64	2848.21
873.70	2776.12
873.77	2825.07
873.84	2837.77
873.91	2858.96
873.97	2891.83
874.04	3019.22
874.11	3066.73
874.17	3156.74
874.24	3192.07
874.31	3157.05
874.37	3047.28
874.44	2991.98
874.51	2901.15
874.57	2796.19
874.64	2635.74
874.71	2527.91
874.77	2392.44
874.84	2330.18
874.91	2233.41
874.98	2188.77
875.04	2117.80
875.11	1980.08
875.18	1828.53
875.24	1757.87
875.31	1622.50
875.38	1586.46
875.44	1543.86
875.51	1599.05
875.58	1564.03
875.64	1607.45
875.71	1658.45
875.78	1709.54
875.84	1755.52
875.91	1742.41
875.98	1690.91
876.04	1668.58
876.11	1630.39
876.18	1587.18
876.24	1595.57
876.31	1620.46
876.37	1654.55
876.44	1749.27
876.51	1813.58
876.57	1852.39
876.64	1812.35
876.71	1816.86
876.77	1789.11
876.84	1760.23
876.91	1645.65
876.97	1607.45
877.04	1583.69
877.11	1646.26
877.17	1717.94
877.24	1902.77
877.31	1942.29
877.37	2006.09
877.44	2056.57
877.50	2101.73
877.57	2053.60
877.64	2054.73
877.70	1964.31
877.77	1944.96
877.84	1908.40
877.90	1975.47
877.97	2073.26
878.03	2160.61
878.10	2129.99
878.17	2185.49
878.23	2185.59
878.30	2171.56
878.37	2143.51
878.43	2103.26
878.50	2067.83
878.56	2107.46
878.63	2136.95
878.70	2262.60
878.76	2353.32
878.83	2433.91
878.89	2539.99
878.96	2605.53
879.03	2631.84
879.09	2662.15
879.16	2610.75
879.22	2599.90
879.29	2613.82
879.36	2693.28
879.42	2652.63
879.49	2693.49
879.55	2744.48
879.62	2803.98
879.69	2822.51
879.75	2885.79
879.82	2876.99
879.88	2954.60
879.95	2899.82
880.02	2953.17
880.08	3038.47
880.15	3159.81
880.21	3183.87
880.28	3279.00
880.34	3284.33
880.41	3389.49
880.48	3313.92
880.54	3423.18
880.61	3425.94
880.67	3520.05
880.74	3553.33
880.80	3643.23
880.87	3636.99
880.94	3686.75
881.00	3761.40
881.07	3857.76
881.13	3850.39
881.20	3887.97
881.26	3892.98
881.33	3985.65
881.40	4067.16
881.46	4093.79
881.53	4132.19
881.59	4142.32
881.66	4114.16
881.72	4285.99
881.79	4301.86
881.85	4514.64
881.92	4520.58
881.99	4716.27
882.05	4806.99
882.12	4947.59
882.18	5005.44
882.25	5143.78
882.31	5082.14
882.38	5169.07
882.44	5122.17
882.51	5253.65
882.57	5211.98
882.64	5264.61
882.71	5300.14
882.77	5433.16
882.84	5465.21
882.90	5684.55
882.97	5811.32
883.03	6004.44
883.10	6113.39
883.16	6297.91
883.23	6340.51
883.29	6498.00
883.36	6523.91
883.42	6571.62
883.49	6434.21
883.55	6629.58
883.62	6607.98
883.68	6684.67
883.75	6608.18
883.81	6753.07
883.88	6808.98
883.94	7005.28
884.01	7058.53
884.07	7193.39
884.14	7159.08
884.20	7343.20
884.27	7523.83
884.34	7713.26
884.40	7680.39
884.47	7838.19
884.53	7843.93
884.60	8039.20
884.66	7989.95
884.73	8071.25
884.79	7967.62
884.86	7886.42
884.92	7878.84
884.98	7833.58
885.05	7817.40
885.11	7775.11
885.18	7789.96
885.24	7832.87
885.31	7708.25
885.37	7851.30
885.44	7836.65
885.50	8116.82
885.57	8196.28
885.63	8226.69
885.70	8319.16
885.76	8347.42
885.83	8389.40
885.89	8533.37
885.96	8419.40
886.02	8327.04
886.09	8088.55
886.15	7889.19
886.22	7653.26
886.28	7470.89
886.35	7175.06
886.41	6972.51
886.47	6739.66
886.54	6633.47
886.60	6332.22
886.67	6246.30
886.73	6131.21
886.80	6130.08
886.86	6090.35
886.93	6121.17
886.99	6109.81
887.06	6166.95
887.12	6152.10
887.19	6256.44
887.25	6193.36
887.31	6331.30
887.38	6288.80
887.44	6459.50
887.51	6434.41
887.57	6514.38
887.64	6510.49
887.70	6749.08
887.77	6825.47
887.83	7112.70
887.89	7106.55
887.96	7142.50
888.02	7056.07
888.09	7057.30
888.15	6936.16
888.22	6852.40
888.28	6654.36
888.34	6495.54
888.41	6201.86
888.47	6143.29
888.54	5951.19
888.60	5979.25
888.67	5905.93
888.73	5918.42
888.79	5948.73
888.86	6144.32
888.92	6175.65
888.99	6490.93
889.05	6634.70
889.11	6936.06
889.18	6968.32
889.24	7138.60
889.31	7074.30
889.37	7097.44
889.44	6849.33
889.50	6703.51
889.56	6307.95
>>>>>End Processed Spectral Data<<<<<
