SpectraSuite Data File
++++++++++++++++++++++++++++++++++++
Date: Wed Jul 12 16:55:21 CDT 2017
User: Owner
Dark Spectrum Present: Yes
Reference Spectrum Present: Yes
Number of Sampled Component Spectra: 1
Spectrometers: USB4H04489
Integration Time (usec): 37000 (USB4H04489)
Spectra Averaged: 20 (USB4H04489)
Boxcar Smoothing: 0 (USB4H04489)
Correct for Electrical Dark: No (USB4H04489)
Strobe/Lamp Enabled: No (USB4H04489)
Correct for Detector Non-linearity: No (USB4H04489)
Correct for Stray Light: No (USB4H04489)
Number of Pixels in Processed Spectrum: 3648
>>>>>Begin Processed Spectral Data<<<<<
580.28	-1.33
580.38	-1.33
580.48	-1.33
580.59	6.86
580.69	-11.98
580.79	-6.04
580.90	-22.53
581.00	-10.14
581.11	-3.17
581.21	3.07
581.31	-21.30
581.42	5.63
581.52	6.96
581.62	-4.92
581.73	23.14
581.83	20.79
581.93	32.46
582.04	118.07
582.14	7447.64
582.25	11592.63
582.35	11760.26
582.45	12065.81
582.56	12303.58
582.66	12705.91
582.76	13158.40
582.87	13518.95
582.97	13981.07
583.07	13892.60
583.18	14343.15
583.28	14421.08
583.38	14494.91
583.49	14248.13
583.59	14254.17
583.70	13775.46
583.80	13455.36
583.90	13139.56
584.01	13162.40
584.11	13052.11
584.21	13500.93
584.32	13487.72
584.42	13979.33
584.52	13906.94
584.63	13978.51
584.73	13918.61
584.83	14230.41
584.94	14093.40
585.04	13709.41
585.14	13310.06
585.25	12850.29
585.35	12264.26
585.45	12123.77
585.56	11821.49
585.66	12414.58
585.76	12023.62
585.87	11389.47
585.97	10614.31
586.07	9785.09
586.18	9112.74
586.28	8990.79
586.38	9143.26
586.49	9723.35
586.59	9990.61
586.69	10397.74
586.80	10532.19
586.90	11125.39
587.00	11240.99
587.11	11617.61
587.21	11857.02
587.31	12131.55
587.41	12400.35
587.52	12841.17
587.62	13119.49
587.72	13547.11
587.83	13845.70
587.93	14380.53
588.03	14744.56
588.14	14772.00
588.24	15090.05
588.34	15414.75
588.45	15305.39
588.55	15569.89
588.65	15400.11
588.75	14989.49
588.86	14616.15
588.96	14359.84
589.06	13904.27
589.17	14265.13
589.27	14400.50
589.37	14669.40
589.48	15031.48
589.58	15248.87
589.68	15391.00
589.78	15544.90
589.89	15328.33
589.99	15744.99
590.09	15714.58
590.20	15293.31
590.30	14813.06
590.40	14352.98
590.50	13679.10
590.61	13462.12
590.71	13424.13
590.81	14192.01
590.92	13795.32
591.02	13337.19
591.12	12448.27
591.22	11292.70
591.33	10290.02
591.43	10037.91
591.53	9790.21
591.64	10076.52
591.74	10453.34
591.84	10949.57
591.94	11145.15
592.05	11357.63
592.15	11783.50
592.25	12171.28
592.35	12229.65
592.46	12661.36
592.56	12869.85
592.66	13522.33
592.76	13800.14
592.87	14125.86
592.97	14201.84
593.07	14787.26
593.18	14594.85
593.28	14816.95
593.38	14741.59
593.48	14876.04
593.59	14822.38
593.69	15273.03
593.79	15156.20
593.89	15079.30
594.00	14602.63
594.10	14422.92
594.20	13942.78
594.30	13855.23
594.41	13928.24
594.51	14152.80
594.61	14226.52
594.71	14719.06
594.82	15074.69
594.92	15208.73
595.02	15353.62
595.12	15421.41
595.23	15625.08
595.33	15626.41
595.43	15483.26
595.53	15237.60
595.64	14645.33
595.74	14190.38
595.84	13454.85
595.94	13396.58
596.04	13344.36
596.15	13192.61
596.25	12070.73
596.35	11340.32
596.45	9915.55
596.56	8841.39
596.66	8201.09
596.76	8226.69
596.86	8332.37
596.97	8778.31
597.07	9002.26
597.17	9336.79
597.27	9499.81
597.37	10014.36
597.48	10148.20
597.58	10550.62
597.68	10494.71
597.78	10981.93
597.89	11127.95
597.99	11580.96
598.09	11744.38
598.19	12174.46
598.29	12479.81
598.40	13064.50
598.50	13469.49
598.60	13641.62
598.70	13911.44
598.80	14254.37
598.91	14403.57
599.01	14449.96
599.11	14633.15
599.21	15043.87
599.31	14352.37
599.42	14063.09
599.52	13766.55
599.62	13379.58
599.72	12947.57
599.82	13063.58
599.93	13356.03
600.03	13645.21
600.13	13920.66
600.23	14213.82
600.33	14361.59
600.44	14450.67
600.54	14431.83
600.64	14650.86
600.74	14507.81
600.84	14655.26
600.95	13942.57
601.05	13501.95
601.15	12747.58
601.25	12301.33
601.35	11828.97
601.46	12324.88
601.56	12197.29
601.66	12005.60
601.76	10701.76
601.86	9943.61
601.96	8567.88
602.07	7630.73
602.17	7289.03
602.27	7386.72
602.37	7598.17
602.47	7902.29
602.57	8142.42
602.68	8335.95
602.78	8382.54
602.88	8747.39
602.98	8926.38
603.08	8959.86
603.18	9118.38
603.29	9356.76
603.39	9412.05
603.49	9627.71
603.59	9675.73
603.69	10017.43
603.79	10203.08
603.90	10579.50
604.00	10658.45
604.10	11114.94
604.20	11327.52
604.30	11484.50
604.40	11434.63
604.51	11524.12
604.61	11500.16
604.71	11864.70
604.81	11554.23
604.91	11455.42
605.01	10897.24
605.11	10647.18
605.22	10023.78
605.32	10221.92
605.42	10168.68
605.52	10481.30
605.62	10465.22
605.72	10730.33
605.83	10620.46
605.93	11133.99
606.03	11057.70
606.13	11219.69
606.23	11131.02
606.33	11236.69
606.43	10944.45
606.53	10635.92
606.64	9857.49
606.74	9649.41
606.84	8905.39
606.94	8794.29
607.04	8875.38
607.14	9203.67
607.24	8842.62
607.35	7963.22
607.45	7035.18
607.55	6126.60
607.65	4998.37
607.75	4657.70
607.85	4655.54
607.95	4814.57
608.05	4890.04
608.16	5067.60
608.26	5004.83
608.36	5183.20
608.46	5195.39
608.56	5309.87
608.66	5270.65
608.76	5304.44
608.86	5379.40
608.96	5481.18
609.07	5403.87
609.17	5492.04
609.27	5526.55
609.37	5604.98
609.47	5729.19
609.57	5984.06
609.67	6074.07
609.77	6266.48
609.87	6319.11
609.98	6471.17
610.08	6407.89
610.18	6516.02
610.28	6630.30
610.38	6795.47
610.48	6711.60
610.58	6637.77
610.68	6388.95
610.78	6327.92
610.88	6088.61
610.98	6001.37
611.09	6033.73
611.19	6305.80
611.29	6259.10
611.39	6479.16
611.49	6508.96
611.59	6658.46
611.69	6789.02
611.79	6936.27
611.89	6927.87
611.99	7022.48
612.09	7150.28
612.20	7053.20
612.30	6854.14
612.40	6690.61
612.50	6418.33
612.60	6253.37
612.70	6067.72
612.80	6347.58
612.90	6545.62
613.00	6378.19
613.10	6047.96
613.20	5637.85
613.30	5047.22
613.40	4586.53
613.50	4378.97
613.61	4431.19
613.71	4578.44
613.81	4691.59
613.91	4866.69
614.01	4980.97
614.11	5072.10
614.21	5134.16
614.31	5235.12
614.41	5337.52
614.51	5517.23
614.61	5663.35
614.71	5681.99
614.81	5886.27
614.91	5907.47
615.01	5929.07
615.11	6012.63
615.22	6174.01
615.32	6296.17
615.42	6447.72
615.52	6573.67
615.62	6647.30
615.72	6669.21
615.82	6690.51
615.92	6714.16
616.02	6822.30
616.12	6690.00
616.22	6776.63
616.32	6617.40
616.42	6567.22
616.52	6442.60
616.62	6192.85
616.72	6203.71
616.82	6179.85
616.92	6158.65
617.02	6370.00
617.12	6263.20
617.22	6437.58
617.32	6192.65
617.42	6162.24
617.52	6246.10
617.62	6376.56
617.72	6320.95
617.83	6347.58
617.93	6258.80
618.03	6161.52
618.13	5875.52
618.23	5666.83
618.33	5575.59
618.43	5615.33
618.53	5501.77
618.63	5552.66
618.73	5483.64
618.83	5499.31
618.93	5204.40
619.03	4912.05
619.13	4565.43
619.23	4367.50
619.33	4193.52
619.43	4171.61
619.53	4238.68
619.63	4278.51
619.73	4428.73
619.83	4408.05
619.93	4438.77
620.03	4519.97
620.13	4575.98
620.23	4603.32
620.33	4575.88
620.43	4782.01
620.53	4784.67
620.63	5048.24
620.73	5149.52
620.83	5383.80
620.93	5494.80
621.03	5714.86
621.13	5769.13
621.23	5992.25
621.33	5986.62
621.43	6172.37
621.53	6183.64
621.63	6422.12
621.73	6719.80
621.83	6886.29
621.93	7027.91
622.03	7312.58
622.13	7485.12
622.23	7754.02
622.33	7725.76
622.43	8058.65
622.53	7969.77
622.63	8100.13
622.73	8102.58
622.83	8127.98
622.93	8058.76
623.03	8041.25
623.13	7874.24
623.23	7901.27
623.33	7775.32
623.42	8009.50
623.52	8148.15
623.62	8383.77
623.72	8483.40
623.82	8444.08
623.92	8326.73
624.02	7969.67
624.12	7643.12
624.22	7385.79
624.32	7449.49
624.42	7581.58
624.52	7496.79
624.62	7541.13
624.72	7311.86
624.82	7108.19
624.92	6717.54
625.02	6691.94
625.12	6865.30
625.22	7043.78
625.32	7179.36
625.42	7482.36
625.52	7354.26
625.62	7189.70
625.72	6976.30
625.82	6854.24
625.91	6655.39
626.01	6814.51
626.11	7101.43
626.21	7439.66
626.31	7643.12
626.41	8009.50
626.51	8021.48
626.61	8355.81
626.71	8495.38
626.81	8664.44
626.91	8763.98
627.01	9106.91
627.11	9310.07
627.21	9744.03
627.31	10329.85
627.41	10983.36
627.51	11054.22
627.60	10943.32
627.70	10602.03
627.80	10227.25
627.90	9494.90
628.00	9164.15
628.10	9254.77
628.20	9703.28
628.30	9921.08
628.40	10351.66
628.50	10606.53
628.60	11170.95
628.70	11382.20
628.80	12067.66
628.89	12149.88
628.99	12755.36
629.09	13057.85
629.19	13549.98
629.29	13881.23
629.39	14279.05
629.49	14345.71
629.59	14692.64
629.69	14707.18
629.79	14772.72
629.89	14740.15
629.98	14779.99
630.08	14520.61
630.18	14572.53
630.28	14587.37
630.38	15068.75
630.48	15262.08
630.58	15814.82
630.68	16272.44
630.78	16742.86
630.88	16918.99
630.98	17272.47
631.07	17319.47
631.17	17518.53
631.27	17804.94
631.37	18369.46
631.47	18412.47
631.57	18637.23
631.67	18783.46
631.77	19120.86
631.87	19200.83
631.96	19765.77
632.06	20468.32
632.16	20025.55
632.26	18952.93
632.36	17303.80
632.46	14738.72
632.56	12054.04
632.66	9795.74
632.75	8752.61
632.85	7809.11
632.95	7499.35
633.05	7684.29
633.15	7778.39
633.25	7689.71
633.35	8001.00
633.45	7987.18
633.55	8094.19
633.64	8147.33
633.74	8197.61
633.84	8147.02
633.94	8288.95
634.04	8194.95
634.14	8162.08
634.24	8198.84
634.33	8501.02
634.43	8589.18
634.53	9013.42
634.63	9276.48
634.73	9606.92
634.83	9904.28
634.93	10303.95
635.02	10591.89
635.12	11184.98
635.22	11331.62
635.32	11974.99
635.42	12171.18
635.52	12641.50
635.62	13138.95
635.71	13565.54
635.81	13886.97
635.91	14368.65
636.01	14721.93
636.11	15106.23
636.21	15353.21
636.31	15825.06
636.40	15732.70
636.50	15810.42
636.60	15704.95
636.70	16068.36
636.80	15868.99
636.90	16053.00
636.99	15505.48
637.09	15317.37
637.19	14802.82
637.29	14407.77
637.39	13943.90
637.49	14350.32
637.58	14528.60
637.68	14991.85
637.78	15269.45
637.88	15834.79
637.98	15641.26
638.08	15935.76
638.17	15552.68
638.27	15377.69
638.37	15203.81
638.47	15602.25
638.57	15662.35
638.66	15616.58
638.76	15065.37
638.86	14616.66
638.96	13839.76
639.06	12839.13
639.16	12844.96
639.25	13071.77
639.35	13186.26
639.45	13783.03
639.55	13714.73
639.65	13219.95
639.74	12011.13
639.84	11185.60
639.94	10197.96
640.04	9261.53
640.14	8834.83
640.23	9333.72
640.33	9358.71
640.43	9791.13
640.53	9854.52
640.63	10266.47
640.73	10244.96
640.82	10520.93
640.92	10635.31
641.02	10669.00
641.12	10370.40
641.21	10684.46
641.31	10538.95
641.41	10702.79
641.51	10986.02
641.61	11429.00
641.70	11624.27
641.80	12461.28
641.90	12666.38
642.00	13464.88
642.10	13817.44
642.19	14729.09
642.29	15013.45
642.39	16072.97
642.49	16560.59
642.59	17414.49
642.68	17937.44
642.78	18731.64
642.88	19733.31
642.98	20398.79
643.07	21035.92
643.17	21874.76
643.27	22377.95
643.37	23482.32
643.46	23385.65
643.56	24321.68
643.66	24510.40
643.76	24642.59
643.86	24671.78
643.95	25058.95
644.05	25045.33
644.15	25691.87
644.25	25403.00
644.34	24837.56
644.44	24000.35
644.54	23457.33
644.64	22651.66
644.73	22832.70
644.83	22469.70
644.93	23429.89
645.03	23869.59
645.12	24370.21
645.22	24928.39
645.32	25538.07
645.42	25303.99
645.51	25201.18
645.61	24431.96
645.71	24880.57
645.81	25237.02
645.90	25740.61
646.00	25601.15
646.10	25280.84
646.20	24298.13
646.29	23260.01
646.39	21635.46
646.49	20872.39
646.59	21074.52
646.68	21526.20
646.78	22475.64
646.88	22941.35
646.98	22581.83
647.07	21150.70
647.17	19034.03
647.27	17563.48
647.37	15878.00
647.46	14631.30
647.56	14462.35
647.66	14936.76
647.75	15072.44
647.85	15498.93
647.95	16134.41
648.05	16311.15
648.14	16539.40
648.24	17116.41
648.34	17106.27
648.44	17699.77
648.53	17424.94
648.63	17525.90
648.73	17247.99
648.82	17243.49
648.92	17062.55
649.02	17470.71
649.12	17881.63
649.21	18266.65
649.31	19033.82
649.41	19876.87
649.50	20504.16
649.60	21706.01
649.70	22368.43
649.80	23408.39
649.89	24189.38
649.99	25451.85
650.09	26199.56
650.18	27362.91
650.28	28327.50
650.38	29625.92
650.47	30781.89
650.57	32013.44
650.67	32748.25
650.77	33880.47
650.86	34807.58
650.96	35857.88
651.06	36154.94
651.15	37092.91
651.25	37223.06
651.35	37541.83
651.44	37670.13
651.54	38575.64
651.64	37939.54
651.73	38630.02
651.83	37630.71
651.93	37293.31
652.03	35194.04
652.12	34271.84
652.22	33447.43
652.32	33648.74
652.41	33598.57
652.51	34857.25
652.61	35595.74
652.70	36554.71
652.80	36811.62
652.90	37967.29
652.99	37562.10
653.09	37994.12
653.19	36642.97
653.28	37240.57
653.38	37443.01
653.48	37955.82
653.57	38278.07
653.67	38231.48
653.77	36791.76
653.86	34687.06
653.96	32601.10
654.06	30474.70
654.15	29719.71
654.25	30388.89
654.35	31400.79
654.44	32522.56
654.54	32942.60
654.64	31465.40
654.73	28102.53
654.83	25278.08
654.93	22204.49
655.02	19872.98
655.12	17947.58
655.22	18098.10
655.31	18720.48
655.41	19439.83
655.51	19261.45
655.60	20140.75
655.70	20615.57
655.79	20742.24
655.89	20839.41
655.99	21234.77
656.08	21196.37
656.18	21130.74
656.28	20784.43
656.37	21063.67
656.47	20590.59
656.57	21150.81
656.66	21060.29
656.76	21958.12
656.85	22511.48
656.95	23383.20
657.05	24330.59
657.14	25359.59
657.24	26213.69
657.34	27508.52
657.43	28367.85
657.53	29584.96
657.63	30394.31
657.72	31636.82
657.82	32758.59
657.91	33958.60
658.01	35504.61
658.11	37032.80
658.20	38557.62
658.30	39778.41
658.39	41060.95
658.49	42877.91
658.59	43807.28
658.68	45258.27
658.78	46256.45
658.88	46984.60
658.97	46729.73
659.07	47523.22
659.16	47509.09
659.26	48189.11
659.36	48007.77
659.45	48580.79
659.55	48122.56
659.64	47853.25
659.74	45524.19
659.84	44631.08
659.93	42334.79
660.03	41980.29
660.12	41520.01
660.22	42509.07
660.32	43142.71
660.41	44568.92
660.51	45333.73
660.60	46284.30
660.70	46819.64
660.80	47783.92
660.89	47079.63
660.99	46886.50
661.08	46283.58
661.18	47521.58
661.28	47579.54
661.37	48100.74
661.47	48046.68
661.56	47066.83
661.66	44846.32
661.75	41912.09
661.85	38891.95
661.95	37552.89
662.04	37582.27
662.14	38784.84
662.23	40336.89
662.33	41512.94
662.43	40757.24
662.52	38240.90
662.62	33910.78
662.71	30142.52
662.81	25650.71
662.90	22532.16
663.00	20829.38
663.10	21124.18
663.19	21535.62
663.29	22333.20
663.38	22343.95
663.48	23247.11
663.57	23491.12
663.67	23993.69
663.77	23703.09
663.86	23888.63
663.96	24052.88
664.05	23912.70
664.15	23310.70
664.24	23518.05
664.34	22782.22
664.43	22683.51
664.53	22524.58
664.63	22651.97
664.72	22852.67
664.82	23730.02
664.91	23966.97
665.01	25138.20
665.10	25712.15
665.20	27196.31
665.29	27735.64
665.39	29176.08
665.48	29909.76
665.58	31081.92
665.68	32077.54
665.77	32965.03
665.87	34044.82
665.96	35628.51
666.06	36533.20
666.15	38476.83
666.25	39035.51
666.34	40061.75
666.44	41192.54
666.53	43212.86
666.63	43552.00
666.72	44617.97
666.82	45738.41
666.91	46426.84
667.01	46349.01
667.11	46575.31
667.20	46834.79
667.30	47060.48
667.39	47420.41
667.49	47945.61
667.58	47021.36
667.68	46842.68
667.77	44728.87
667.87	43739.19
667.96	41363.95
668.06	40496.64
668.15	40128.62
668.25	40599.14
668.34	41023.48
668.44	41998.31
668.53	42539.38
668.63	43582.41
668.72	44298.28
668.82	44738.18
668.91	45255.09
669.01	44779.14
669.10	43768.16
669.20	44914.31
669.29	44628.21
669.39	45204.20
669.48	45515.70
669.58	45925.80
669.67	44111.40
669.77	41759.62
669.86	38785.05
669.96	36827.50
670.05	34701.19
670.15	35702.14
670.24	36448.21
670.34	38473.76
670.43	39376.60
670.53	39838.11
670.62	37167.46
670.72	33554.23
670.81	29306.54
670.91	25517.69
671.00	21774.72
671.10	20454.29
671.19	20101.94
671.29	20857.54
671.38	21391.96
671.48	21863.19
671.57	22224.45
671.67	22865.06
671.76	23385.35
671.86	24204.43
671.95	23829.14
672.04	24627.44
672.14	24799.78
672.23	24853.02
672.33	24546.75
672.42	24679.76
672.52	24740.08
672.61	24786.98
672.71	24585.15
672.80	25172.71
672.90	25515.95
672.99	26267.55
673.09	26802.69
673.18	28075.30
673.28	28621.39
673.37	30381.82
673.46	31557.25
673.56	33301.61
673.65	34342.29
673.75	36124.53
673.84	37213.84
673.94	39284.03
674.03	41179.33
674.13	43826.84
674.22	46477.52
674.32	49928.66
674.41	50488.78
674.50	50606.74
674.60	48657.59
674.69	46507.02
674.79	42835.11
674.88	39603.62
674.98	36758.38
675.07	36572.63
675.17	35773.82
675.26	35698.45
675.35	35277.90
675.45	35752.62
675.54	35533.79
675.64	36065.45
675.73	35899.25
675.83	36489.38
675.92	36060.22
676.01	35025.80
676.11	33366.02
676.20	31971.04
676.30	30392.37
676.39	30101.86
676.49	29586.49
676.58	29955.02
676.67	30391.24
676.77	31344.47
676.86	31592.99
676.96	32280.80
677.05	32483.75
677.15	33512.35
677.24	33559.76
677.33	33622.94
677.43	33155.69
677.52	33236.59
677.62	33382.40
677.71	33939.35
677.80	34073.08
677.90	34703.44
677.99	32768.11
678.09	31386.55
678.18	29238.54
678.27	26917.89
678.37	24808.89
678.46	24614.23
678.56	25241.42
678.65	26370.26
678.74	27489.88
678.84	28622.62
678.93	27210.75
679.03	25312.79
679.12	21897.70
679.21	18368.95
679.31	14822.79
679.40	12214.70
679.50	10983.77
679.59	10820.44
679.68	10776.21
679.78	11185.60
679.87	11185.08
679.97	11501.19
680.06	11596.11
680.15	11903.72
680.25	11809.20
680.34	11778.59
680.44	11597.24
680.53	11495.15
680.62	11040.19
680.72	10683.54
680.81	10226.02
680.90	9949.34
681.00	9365.87
681.09	9170.19
681.19	8748.72
681.28	8633.93
681.37	8530.71
681.47	8644.17
681.56	8698.75
681.65	8963.24
681.75	9054.27
681.84	9378.16
681.94	9682.39
682.03	9986.82
682.12	10221.31
682.22	10531.68
682.31	10767.20
682.40	11113.51
682.50	11473.34
682.59	12001.81
682.68	12242.86
682.78	12815.98
682.87	13098.30
682.96	13726.61
683.06	13941.14
683.15	14393.94
683.25	14915.77
683.34	15380.35
683.43	15550.84
683.53	15961.25
683.62	16268.14
683.71	16624.59
683.81	16636.47
683.90	16848.95
683.99	16669.85
684.09	16935.98
684.18	17048.01
684.27	17172.01
684.37	17179.18
684.46	17162.49
684.55	16736.92
684.65	16056.18
684.74	15326.59
684.83	14694.28
684.93	14014.56
685.02	14021.11
685.11	13756.21
685.21	14279.26
685.30	14375.10
685.39	14880.85
685.49	15033.93
685.58	15397.24
685.67	15393.15
685.77	15959.51
685.86	15985.32
685.95	15817.90
686.05	15636.34
686.14	15832.03
686.23	15522.27
686.33	15852.71
686.42	15846.87
686.51	16001.70
686.61	15510.80
686.70	14894.06
686.79	13891.78
686.88	12923.30
686.98	11775.41
687.07	11469.55
687.16	11457.05
687.26	12016.97
687.35	12401.68
687.44	13083.86
687.54	12858.27
687.63	12362.77
687.72	10941.68
687.82	9542.72
687.91	7849.45
688.00	6382.29
688.09	5571.91
688.19	5265.94
688.28	5112.65
688.37	5184.43
688.47	5116.54
688.56	5112.04
688.65	5052.24
688.74	5038.11
688.84	5074.15
688.93	5059.10
689.02	5001.45
689.12	5055.72
689.21	4901.20
689.30	4776.17
689.39	4583.35
689.49	4452.39
689.58	4211.34
689.67	4005.11
689.77	3661.36
689.86	3538.48
689.95	3234.56
690.04	3064.07
690.14	2895.21
690.23	2845.75
690.32	2755.34
690.42	2810.63
690.51	2745.71
690.60	2741.41
690.69	2726.56
690.79	2707.41
690.88	2680.18
690.97	2636.55
691.06	2569.89
691.16	2599.79
691.25	2516.44
691.34	2561.80
691.43	2564.36
691.53	2584.54
691.62	2523.20
691.71	2525.86
691.80	2472.31
691.90	2421.21
691.99	2387.52
692.08	2454.18
692.18	2493.50
692.27	2580.03
692.36	2542.04
692.45	2559.86
692.55	2534.46
692.64	2544.60
692.73	2520.74
692.82	2519.62
692.91	2495.55
693.01	2548.49
693.10	2533.64
693.19	2521.36
693.28	2466.68
693.38	2497.40
693.47	2450.60
693.56	2472.92
693.65	2422.64
693.75	2481.93
693.84	2481.42
693.93	2495.04
694.02	2512.24
694.12	2518.39
694.21	2512.96
694.30	2571.84
694.39	2546.14
694.48	2573.99
694.58	2549.31
694.67	2538.66
694.76	2496.27
694.85	2467.39
694.95	2426.95
695.04	2412.51
695.13	2375.64
695.22	2398.89
695.31	2377.79
695.41	2389.47
695.50	2400.42
695.59	2379.13
695.68	2343.59
695.78	2351.48
695.87	2358.65
695.96	2368.48
696.05	2391.31
696.14	2437.90
696.24	2457.56
696.33	2484.80
696.42	2452.75
696.51	2407.18
696.60	2372.47
696.70	2313.59
696.79	2258.40
696.88	2273.96
696.97	2220.00
697.06	2270.58
697.16	2238.74
697.25	2340.21
697.34	2341.14
697.43	2440.67
697.52	2515.21
697.62	2585.66
697.71	2654.68
697.80	2687.04
697.89	2695.43
697.98	2729.94
698.08	2719.80
698.17	2804.08
698.26	2841.25
698.35	2909.14
698.44	2939.55
698.53	2989.01
698.63	3006.73
698.72	3079.33
698.81	3059.77
698.90	3133.80
698.99	3162.68
699.08	3219.00
699.18	3269.48
699.27	3311.67
699.36	3333.17
699.45	3427.79
699.54	3483.90
699.64	3515.65
699.73	3666.89
699.82	3838.41
699.91	3898.51
700.00	4154.10
700.09	4200.59
700.19	4187.07
700.28	4055.39
700.37	3984.63
700.46	3755.57
700.55	3632.89
700.64	3466.70
700.73	3452.98
700.83	3419.08
700.92	3366.66
701.01	3323.34
701.10	3343.00
701.19	3339.83
701.28	3379.05
701.38	3407.82
701.47	3469.87
701.56	3458.20
701.65	3485.95
701.74	3508.78
701.83	3527.22
701.92	3464.24
702.02	3503.36
702.11	3563.36
702.20	3624.29
702.29	3670.47
702.38	3772.15
702.47	3880.90
702.56	3973.98
702.66	4033.37
702.75	4142.32
702.84	4108.33
702.93	4138.54
703.02	4083.75
703.11	4151.23
703.20	4112.32
703.29	4173.25
703.39	4238.37
703.48	4298.07
703.57	4380.40
703.66	4528.98
703.75	4553.86
703.84	4858.50
703.93	4838.74
704.02	5010.46
704.12	5117.36
704.21	5336.39
704.30	5503.81
704.39	5803.12
704.48	5935.83
704.57	6140.32
704.66	6268.42
704.75	6263.61
704.84	6171.35
704.94	6282.55
705.03	6257.88
705.12	6395.09
705.21	6334.26
705.30	6508.55
705.39	6617.50
705.48	6756.66
705.57	6856.60
705.66	7076.86
705.75	7339.51
705.85	7572.06
705.94	7603.08
706.03	7731.39
706.12	7831.53
706.21	8067.36
706.30	8192.59
706.39	8442.65
706.48	8778.52
706.57	9121.14
706.66	9252.62
706.75	9789.29
706.85	10143.28
706.94	10707.29
707.03	11250.00
707.12	12134.21
707.21	12965.79
707.30	13693.33
707.39	13626.98
707.48	13008.39
707.57	12238.56
707.66	10879.22
707.75	9365.46
707.84	8004.38
707.93	6993.61
708.03	6519.61
708.12	6189.99
708.21	6134.49
708.30	5982.42
708.39	6022.15
708.48	6068.64
708.57	6248.56
708.66	6251.42
708.75	6348.40
708.84	6368.06
708.93	6582.27
709.02	6481.62
709.11	6531.69
709.20	6469.33
709.29	6609.92
709.39	6643.61
709.48	6857.93
709.57	7026.07
709.66	7318.62
709.75	7425.83
709.84	7578.20
709.93	7619.98
710.02	7775.93
710.11	7760.68
710.20	7804.91
710.29	7887.85
710.38	8037.56
710.47	8021.79
710.56	8318.23
710.65	8467.74
710.74	8560.30
710.83	8708.78
710.92	8977.78
711.01	9244.53
711.10	9497.86
711.19	9586.75
711.28	10030.03
711.38	10120.24
711.47	10334.77
711.56	10580.32
711.65	10905.64
711.74	11266.49
711.83	11603.89
711.92	11755.65
712.01	12043.80
712.10	12298.46
712.19	12614.16
712.28	12868.92
712.37	13381.74
712.46	13811.91
712.55	14064.12
712.64	14263.28
712.73	14560.55
712.82	15054.72
712.91	15406.77
713.00	15620.27
713.09	15606.96
713.18	15632.76
713.27	15687.13
713.36	15434.72
713.45	15898.59
713.54	15524.83
713.63	15973.34
713.72	16222.88
713.81	16532.74
713.90	16661.66
713.99	17101.56
714.08	17693.22
714.17	18299.32
714.26	18650.03
714.35	19411.16
714.44	19531.38
714.53	20146.07
714.62	20544.71
714.71	21505.11
714.80	22354.09
714.89	23533.72
714.98	24673.11
715.07	26791.22
715.16	28449.77
715.25	31173.46
715.34	32009.96
715.43	31927.94
715.52	29872.29
715.61	26887.78
715.70	23172.05
715.79	19035.15
715.88	14909.01
715.97	12289.55
716.06	10599.06
716.15	9879.20
716.24	9469.30
716.33	9330.96
716.42	9128.72
716.51	9040.76
716.60	8497.33
716.69	8104.32
716.78	7360.60
716.87	6873.29
716.96	6302.93
717.05	6109.81
717.13	5926.00
717.22	5996.45
717.31	5953.55
717.40	5987.03
717.49	5907.06
717.58	5922.73
717.67	5925.70
717.76	6152.92
717.85	6176.57
717.94	6215.99
718.03	6074.99
718.12	6016.62
718.21	5915.46
718.30	5838.66
718.39	5668.47
718.48	5598.94
718.57	5752.23
718.66	5916.58
718.75	5960.00
718.84	5992.25
718.93	5918.73
719.02	6054.10
719.10	6067.31
719.19	6286.34
719.28	6235.96
719.37	6461.03
719.46	6651.60
719.55	7016.24
719.64	6970.47
719.73	6970.98
719.82	7064.47
719.91	7408.32
720.00	7464.33
720.09	7643.63
720.18	7815.56
720.27	8277.68
720.36	8451.56
720.44	8598.81
720.53	8498.66
720.62	8827.67
720.71	9007.99
720.80	9100.46
720.89	9419.53
720.98	9912.78
721.07	10134.27
721.16	10412.69
721.25	10486.01
721.34	10690.81
721.43	10630.80
721.52	10943.83
721.60	11405.45
721.69	12090.49
721.78	12346.28
721.87	12848.34
721.96	13156.25
722.05	13609.16
722.14	13619.50
722.23	13970.12
722.32	14321.55
722.41	15421.92
722.50	15857.52
722.58	16184.69
722.67	16348.83
722.76	16987.18
722.85	16959.74
722.94	17507.78
723.03	17402.00
723.12	18003.39
723.21	17828.18
723.30	18310.17
723.38	17975.43
723.47	17965.70
723.56	18100.97
723.65	18596.58
723.74	18591.87
723.83	18895.38
723.92	18333.83
724.01	18340.07
724.10	17438.86
724.18	17117.95
724.27	16502.43
724.36	16589.26
724.45	16319.24
724.54	16598.07
724.63	16568.27
724.72	17133.41
724.81	17341.48
724.89	17854.29
724.98	18119.10
725.07	18676.96
725.16	18795.95
725.25	18854.01
725.34	18352.26
725.43	18031.14
725.52	17542.49
725.60	17604.65
725.69	17432.62
725.78	17924.54
725.87	18575.79
725.96	19481.00
726.05	19519.39
726.14	19435.43
726.22	18200.61
726.31	17462.31
726.40	16152.94
726.49	15235.76
726.58	14592.70
726.67	14730.83
726.76	14742.71
726.84	15419.77
726.93	15785.95
727.02	16459.32
727.11	17186.76
727.20	17732.44
727.29	17679.30
727.38	17241.54
727.46	16212.95
727.55	15072.64
727.64	13508.50
727.73	12237.13
727.82	11448.86
727.91	11097.94
727.99	10897.45
728.08	11064.05
728.17	11305.61
728.26	11763.43
728.35	11820.88
728.44	11991.06
728.52	12109.64
728.61	12322.73
728.70	12275.83
728.79	12386.93
728.88	12281.67
728.97	12474.89
729.05	12076.97
729.14	11859.07
729.23	11477.12
729.32	11287.28
729.41	10809.38
729.49	10579.19
729.58	10595.88
729.67	10887.41
729.76	10890.69
729.85	10949.98
729.94	10831.60
730.02	11082.38
730.11	11201.16
730.20	11674.45
730.29	11600.21
730.38	11872.69
730.46	12136.37
730.55	12754.03
730.64	12861.35
730.73	12883.16
730.82	12681.74
730.90	13243.60
730.99	13583.26
731.08	13861.06
731.17	13842.53
731.26	14392.20
731.34	14933.07
731.43	15378.71
731.52	15314.81
731.61	15566.51
731.70	15868.48
731.78	16371.87
731.87	16478.88
731.96	17256.49
732.05	18068.92
732.13	18719.36
732.22	18898.76
732.31	19361.19
732.40	19591.28
732.49	19896.22
732.57	19599.16
732.66	20598.57
732.75	21795.30
732.84	22443.48
732.93	22716.99
733.01	23701.04
733.10	24052.88
733.19	24923.17
733.28	24616.48
733.36	25470.08
733.45	26342.31
733.54	28076.73
733.63	28490.32
733.71	29152.63
733.80	29701.18
733.89	30676.93
733.98	30936.10
734.07	31589.30
734.15	31855.54
734.24	33020.32
734.33	33439.34
734.42	33809.40
734.50	32862.12
734.59	33083.19
734.68	32330.57
734.77	32891.09
734.85	32850.14
734.94	33698.51
735.03	32860.68
735.12	32785.83
735.20	31167.32
735.29	30236.01
735.38	28269.44
735.47	27459.16
735.55	26636.91
735.64	26763.16
735.73	26516.69
735.82	27339.97
735.90	27658.84
735.99	28398.16
736.08	29078.19
736.17	29698.21
736.25	30259.66
736.34	31319.07
736.43	31513.63
736.51	31354.61
736.60	30489.34
736.69	29629.60
736.78	28897.76
736.86	28635.42
736.95	28221.42
737.04	28897.97
737.13	30299.08
737.21	32093.82
737.30	32678.11
737.39	32429.59
737.47	30899.75
737.56	29051.56
737.65	26628.61
737.74	24436.57
737.82	22788.57
737.91	22422.90
738.00	22620.02
738.08	23265.74
738.17	23723.77
738.26	24675.05
738.35	25770.82
738.43	27240.65
738.52	28061.37
738.61	28251.63
738.69	27011.27
738.78	25120.49
738.87	22399.04
738.96	19845.64
739.04	17056.51
739.13	15401.65
739.22	14628.44
739.30	14596.49
739.39	14597.51
739.48	14862.93
739.56	15108.28
739.65	15710.89
739.74	15964.53
739.82	16304.39
739.91	16238.86
740.00	16602.88
740.09	16566.43
740.17	16942.95
740.26	17022.82
740.35	17302.47
740.43	16973.67
740.52	16924.52
740.61	16401.87
740.69	16029.86
740.78	15363.14
740.87	15082.47
740.95	14797.09
741.04	15081.45
741.13	15108.07
741.21	15423.76
741.30	15378.30
741.39	15554.02
741.47	15769.77
741.56	16823.14
741.65	17516.28
741.73	18579.38
741.82	19542.23
741.91	21060.08
741.99	22300.84
742.08	23428.97
742.17	23597.00
742.25	24307.75
742.34	24426.43
742.43	24666.35
742.51	23923.65
742.60	23709.54
742.69	22833.62
742.77	22532.98
742.86	22444.41
742.95	22490.79
743.03	21959.86
743.12	22329.72
743.21	22545.88
743.29	23507.30
743.38	23670.01
743.47	25150.08
743.55	26499.79
743.64	27773.12
743.73	28672.48
743.81	29235.88
743.90	30530.40
743.98	31855.85
744.07	33894.29
744.16	36748.34
744.24	39155.83
744.33	40448.10
744.42	41097.20
744.50	41203.80
744.59	40014.14
744.68	39033.57
744.76	37416.39
744.85	37112.37
744.93	37794.85
745.02	39923.31
745.11	41156.90
745.19	43226.07
745.28	43109.23
745.37	44275.14
745.45	44854.20
745.54	45826.58
745.62	46184.05
745.71	46722.05
745.80	47254.52
745.88	49384.41
745.97	49278.94
746.05	49569.45
746.14	49156.06
746.23	49934.29
746.31	50565.99
746.40	52151.73
746.49	53557.86
746.57	56745.63
746.66	59182.30
746.74	61539.82
746.83	61015.95
746.92	59956.74
747.00	56964.15
747.09	54503.00
747.17	50577.97
747.26	46725.84
747.35	44238.58
747.43	43984.33
747.52	43983.61
747.60	44935.40
747.69	45132.62
747.78	46229.82
747.86	46654.37
747.95	48454.33
748.03	48900.99
748.12	50234.11
748.20	49537.50
748.29	48431.08
748.38	47292.00
748.46	46200.02
748.55	45001.66
748.63	45366.60
748.72	45615.84
748.81	48430.88
748.89	51113.82
748.98	53236.13
749.06	52770.11
749.15	51802.45
749.23	48286.39
749.32	45862.72
749.41	41803.45
749.49	38916.53
749.58	37026.35
749.66	37229.82
749.75	37615.45
749.83	39538.19
749.92	40393.11
750.01	42500.16
750.09	44058.87
750.18	46632.86
750.26	48067.36
750.35	48962.22
750.43	46782.06
750.52	44615.92
750.60	40718.23
750.69	37831.61
750.78	34045.94
750.86	32194.79
750.95	31514.14
751.03	31300.95
751.12	30134.84
751.20	28884.24
751.29	27092.58
751.37	25418.36
751.46	23653.02
751.55	22509.63
751.63	21252.28
751.72	20770.50
751.80	20275.30
751.89	20219.39
751.97	19916.19
752.06	20042.65
752.14	20012.44
752.23	19786.96
752.31	19215.17
752.40	18702.87
752.48	17589.59
752.57	16800.51
752.65	15800.39
752.74	15228.29
752.83	14568.33
752.91	14661.00
753.00	14614.20
753.08	14641.44
753.17	14651.07
753.25	14617.89
753.34	14619.42
753.42	14977.51
753.51	15219.17
753.59	15763.22
753.68	15914.77
753.76	16716.75
753.85	17303.39
753.93	18240.95
754.02	17994.78
754.10	18016.70
754.19	17996.42
754.27	18575.49
754.36	18694.27
754.44	19244.46
754.53	19657.33
754.61	20422.24
754.70	21305.53
754.78	22655.45
754.87	22563.29
754.95	22887.18
755.04	22436.21
755.12	23496.35
755.21	23826.79
755.29	24494.63
755.38	24855.99
755.46	26519.66
755.55	27566.68
755.63	28710.06
755.72	28836.83
755.80	29080.03
755.89	29506.11
755.97	29832.45
756.06	30223.21
756.14	31410.31
756.23	32909.83
756.31	34642.21
756.40	35155.74
756.48	36744.14
756.57	37333.65
756.65	38234.96
756.74	37889.47
756.82	39129.82
756.91	38908.13
756.99	41150.45
757.08	43578.83
757.16	45399.27
757.25	45760.22
757.33	47174.55
757.41	47742.66
757.50	48456.07
757.58	49004.10
757.67	49581.53
757.75	49979.86
757.84	51666.36
757.92	52662.59
758.01	53809.56
758.09	52605.66
758.18	52346.49
758.26	52581.19
758.35	53487.93
758.43	53507.89
758.51	55357.21
758.60	56307.36
758.68	57575.57
758.77	56486.97
758.85	55978.36
758.94	53794.00
759.02	50958.17
759.11	48350.80
759.19	47104.41
759.27	45792.07
759.36	46073.66
759.44	46400.52
759.53	48250.66
759.61	48127.06
759.70	49210.03
759.78	50304.36
759.87	51401.97
759.95	52032.95
760.03	53614.49
760.12	54079.69
760.20	56489.33
760.29	56717.47
760.37	57251.07
760.46	56099.60
760.54	56343.20
760.62	56124.58
760.71	57060.91
760.79	58068.00
760.88	60059.14
760.96	61821.42
761.05	64068.35
761.13	63933.80
761.21	62708.91
761.30	57148.88
761.38	52107.70
761.47	46114.11
761.55	40878.28
761.64	35677.46
761.72	32893.45
761.80	31529.61
761.89	32003.71
761.97	32539.77
762.06	34426.25
762.14	35436.82
762.22	37492.47
762.31	39545.46
762.39	42570.31
762.48	44046.89
762.56	43690.44
762.64	40874.69
762.73	37244.77
762.81	32017.43
762.90	27067.39
762.98	21542.89
763.06	17518.43
763.15	15789.74
763.23	15381.27
763.32	15218.15
763.40	15383.11
763.48	15401.65
763.57	15898.89
763.65	16194.52
763.74	16856.11
763.82	17298.68
763.90	17537.37
763.99	17592.36
764.07	17506.14
764.15	17298.58
764.24	17243.79
764.32	17173.96
764.41	17166.07
764.49	17126.96
764.57	17082.52
764.66	16380.78
764.74	15698.09
764.82	14437.26
764.91	13749.24
764.99	12466.60
765.08	11737.22
765.16	11081.56
765.24	11091.59
765.33	11005.27
765.41	11139.62
765.49	10985.92
765.58	10846.76
765.66	10669.20
765.74	10817.06
765.83	10906.46
765.91	11321.38
766.00	11559.55
766.08	12039.80
766.16	12407.52
766.25	12973.06
766.33	12915.82
766.41	12848.03
766.50	12619.38
766.58	12915.31
766.66	12967.74
766.75	13332.79
766.83	13593.60
766.91	14006.06
767.00	14410.12
767.08	15216.41
767.16	15922.04
767.25	16410.37
767.33	15806.43
767.41	15764.65
767.50	15907.70
767.58	16551.79
767.66	16609.64
767.75	17292.13
767.83	17714.21
767.91	18845.51
768.00	19607.46
768.08	20122.42
768.16	19993.81
768.25	20250.01
768.33	20247.76
768.41	20754.63
768.50	20739.68
768.58	21774.31
768.66	22660.16
768.75	23645.44
768.83	24342.26
768.91	25184.59
769.00	25521.48
769.08	26130.44
769.16	26053.44
769.25	26367.39
769.33	26611.61
769.41	27480.26
769.50	28712.62
769.58	30550.16
769.66	31342.32
769.74	32372.14
769.83	32420.37
769.91	33417.42
769.99	33445.28
770.08	34153.77
770.16	34397.89
770.24	35441.53
770.33	36085.21
770.41	37236.99
770.49	37453.97
770.58	37176.78
770.66	35830.44
770.74	36216.69
770.82	36364.76
770.91	36788.07
770.99	36702.26
771.07	38488.30
771.16	39785.38
771.24	40247.60
771.32	39385.41
771.40	38599.40
771.49	36516.72
771.57	34215.52
771.65	32087.37
771.74	30610.58
771.82	28924.49
771.90	28696.14
771.98	28684.16
772.07	29933.62
772.15	29630.93
772.23	29960.96
772.31	30750.97
772.40	31724.16
772.48	31734.20
772.56	32437.37
772.65	32677.70
772.73	33606.86
772.81	34080.15
772.89	35066.14
772.98	34487.49
773.06	33778.38
773.14	32606.84
773.22	32051.73
773.31	30945.73
773.39	30459.13
773.47	30318.03
773.55	32474.03
773.64	34600.33
773.72	36318.37
773.80	37845.75
773.88	36905.93
773.97	34880.70
774.05	32789.62
774.13	29454.91
774.21	26621.24
774.30	23838.05
774.38	21820.08
774.46	21424.72
774.54	21916.85
774.63	22491.20
774.71	23208.20
774.79	24216.51
774.87	26037.36
774.96	27521.73
775.04	29975.81
775.12	31350.10
775.20	31629.34
775.29	29775.32
775.37	27518.35
775.45	23977.31
775.53	19991.76
775.61	15835.61
775.70	12372.19
775.78	10387.09
775.86	9507.29
775.94	9107.32
776.03	9130.66
776.11	9384.92
776.19	9777.92
776.27	9983.03
776.36	10536.90
776.44	11033.64
776.52	11669.33
776.60	11839.82
776.68	12325.90
776.77	12374.24
776.85	12460.35
776.93	11885.69
777.01	11542.45
777.09	10936.87
777.18	10520.11
777.26	10134.89
777.34	9893.53
777.42	9511.69
777.50	9011.16
777.59	8159.21
777.67	7485.84
777.75	6675.05
777.83	6017.34
777.91	5332.71
778.00	5166.41
778.08	5105.38
778.16	5142.76
778.24	5084.29
778.32	5343.46
778.41	5412.27
778.49	5742.30
778.57	6066.60
778.65	6518.38
778.73	6680.06
778.82	6786.56
778.90	6817.38
778.98	6772.53
779.06	6460.32
779.14	6180.97
779.22	5751.31
779.31	5598.43
779.39	5252.32
779.47	5099.65
779.55	5005.13
779.63	5017.73
779.72	4905.50
779.80	5049.88
779.88	5056.33
779.96	5181.16
780.04	5346.12
780.12	5483.95
780.21	5535.05
780.29	5672.46
780.37	5812.95
780.45	5936.65
780.53	6041.92
780.61	6079.80
780.70	6135.30
780.78	6231.87
780.86	6345.43
780.94	6519.40
781.02	6429.19
781.10	6453.76
781.18	6451.41
781.27	6389.87
781.35	6429.91
781.43	6327.40
781.51	6271.60
781.59	6242.72
781.67	6206.27
781.75	6366.42
781.84	6289.52
781.92	6423.66
782.00	6383.21
782.08	6621.59
782.16	6876.77
782.24	7605.75
782.32	8406.50
782.41	9655.56
782.49	11011.11
782.57	13219.74
782.65	15270.17
782.73	17435.79
782.81	18550.71
782.89	18275.15
782.98	16996.40
783.06	15707.82
783.14	13617.87
783.22	11122.52
783.30	8715.85
783.38	7516.45
783.46	6743.24
783.54	6478.95
783.63	6144.52
783.71	6018.98
783.79	5815.72
783.87	5852.38
783.95	5942.80
784.03	5989.59
784.11	5993.28
784.19	6124.45
784.27	6160.09
784.36	6313.68
784.44	6237.60
784.52	6218.76
784.60	6220.60
784.68	6207.60
784.76	6147.29
784.84	6072.02
784.92	6084.11
785.00	6238.32
785.08	6336.62
785.17	6389.87
785.25	6381.88
785.33	6529.74
785.41	6493.29
785.49	6349.32
785.57	6268.73
785.65	6367.65
785.73	6446.60
785.81	6679.25
785.89	6714.68
785.98	7012.55
786.06	7036.21
786.14	7118.43
786.22	7025.35
786.30	7013.17
786.38	6931.66
786.46	6944.76
786.54	6847.90
786.62	6974.87
786.70	7093.34
786.78	7183.35
786.86	7086.79
786.94	7085.46
787.03	6953.88
787.11	6850.35
787.19	6652.11
787.27	6481.10
787.35	6495.03
787.43	6659.38
787.51	6665.63
787.59	7096.11
787.67	7318.93
787.75	7758.22
787.83	7898.09
787.91	8103.40
787.99	8265.19
788.07	8532.86
788.15	8654.20
788.23	8893.20
788.32	9086.94
788.40	9200.60
788.48	9197.84
788.56	8805.86
788.64	8258.74
788.72	7528.03
788.80	6754.61
788.88	6027.17
788.96	5394.14
789.04	4958.64
789.12	4703.57
789.20	4647.56
789.28	4567.18
789.36	4681.35
789.44	4680.53
789.52	4687.90
789.60	4553.66
789.68	4483.21
789.76	4350.70
789.84	4163.83
789.92	3850.90
790.00	3677.84
790.08	3508.07
790.16	3473.35
790.25	3275.01
790.33	3124.79
790.41	2983.38
790.49	2930.03
790.57	2868.08
790.65	2807.56
790.73	2760.05
790.81	2790.66
790.89	2854.87
790.97	2952.76
791.05	3041.23
791.13	3190.63
791.21	3173.02
791.29	3220.23
791.37	3152.85
791.45	3039.80
791.53	2759.02
791.61	2616.59
791.69	2498.93
791.77	2447.43
791.85	2320.96
791.93	2241.71
792.01	2243.96
792.09	2250.21
792.17	2191.43
792.25	2224.50
792.33	2233.41
792.41	2337.55
792.49	2389.16
792.57	2497.40
792.65	2476.92
792.73	2488.90
792.81	2385.58
792.89	2325.78
792.97	2227.06
793.05	2269.15
793.13	2303.45
793.21	2372.78
793.29	2377.59
793.37	2444.87
793.45	2440.67
793.53	2503.33
793.61	2503.74
793.69	2590.07
793.77	2550.54
793.85	2644.44
793.93	2675.26
794.01	2758.92
794.09	2691.65
794.16	2663.49
794.24	2652.84
794.32	2716.94
794.40	2746.43
794.48	2846.27
794.56	2770.49
794.64	2814.83
794.72	2864.08
794.80	2950.41
794.88	3010.92
794.96	3103.70
795.04	3109.94
795.12	3189.40
795.20	3197.39
795.28	3278.18
795.36	3245.83
795.44	3290.06
795.52	3310.85
795.60	3430.55
795.68	3469.77
795.76	3578.21
795.84	3670.98
795.92	3732.63
796.00	3740.92
796.07	3783.11
796.15	3831.54
796.23	3819.77
796.31	3832.47
796.39	3930.26
796.47	3992.00
796.55	4185.54
796.63	4235.92
796.71	4388.80
796.79	4447.16
796.87	4492.42
796.95	4432.83
797.03	4612.03
797.11	4743.10
797.19	4891.47
797.27	4978.20
797.34	5254.47
797.42	5496.65
797.50	5625.46
797.58	5698.68
797.66	5727.04
797.74	5772.51
797.82	5749.67
797.90	5756.64
797.98	5856.27
798.06	5902.86
798.14	6274.05
798.22	6291.05
798.29	6519.50
798.37	6622.21
798.45	6825.06
798.53	6819.94
798.61	6933.81
798.69	7027.09
798.77	7211.82
798.85	7420.61
798.93	7742.96
799.01	8001.62
799.09	8460.67
799.16	9245.76
799.24	10045.08
799.32	10918.03
799.40	11363.15
799.48	11693.90
799.56	11780.02
799.64	11046.44
799.72	10050.51
799.80	8785.17
799.88	7449.28
799.95	6096.80
800.03	5172.04
800.11	4477.27
800.19	4259.67
800.27	4025.79
800.35	3852.84
800.43	3734.16
800.51	3706.82
800.58	3680.20
800.66	3595.21
800.74	3487.49
800.82	3452.26
800.90	3380.38
800.98	3371.16
801.06	3232.92
801.14	3168.31
801.21	3150.49
801.29	3275.93
801.37	3293.95
801.45	3468.34
801.53	3452.06
801.61	3566.64
801.69	3696.89
801.77	3772.26
801.84	3663.61
801.92	3603.81
802.00	3531.11
802.08	3467.62
802.16	3349.86
802.24	3242.45
802.32	3117.01
802.39	3123.77
802.47	3184.59
802.55	3308.60
802.63	3348.84
802.71	3553.53
802.79	3689.52
802.87	3772.67
802.94	3738.57
803.02	3747.68
803.10	3613.85
803.18	3487.79
803.26	3288.73
803.34	3156.02
803.41	3050.45
803.49	3075.95
803.57	2998.94
803.65	2989.83
803.73	3018.40
803.81	3066.83
803.88	3036.52
803.96	3109.02
804.04	3137.80
804.12	3131.14
804.20	3161.24
804.28	3197.39
804.35	3171.18
804.43	3245.93
804.51	3285.04
804.59	3286.99
804.67	3172.82
804.75	3180.50
804.82	2922.86
804.90	2792.41
804.98	2628.67
805.06	2511.53
805.14	2481.11
805.21	2633.69
805.29	2729.74
805.37	2837.46
805.45	2948.05
805.53	3053.21
805.60	3113.73
805.68	3056.29
805.76	2967.61
805.84	2989.11
805.92	2966.59
805.99	3011.85
806.07	2893.06
806.15	2927.26
806.23	2925.73
806.31	2930.85
806.38	2875.86
806.46	2904.02
806.54	2753.90
806.62	2822.10
806.70	2713.46
806.77	2627.75
806.85	2553.61
806.93	2556.68
807.01	2556.07
807.09	2592.32
807.16	2534.05
807.24	2556.89
807.32	2550.03
807.40	2569.18
807.48	2527.91
807.55	2532.31
807.63	2567.64
807.71	2701.37
807.79	2682.12
807.86	2755.85
807.94	2775.41
808.02	2834.70
808.10	2782.88
808.17	2797.53
808.25	2763.63
808.33	2841.45
808.41	2833.47
808.49	2880.47
808.56	2932.79
808.64	2965.66
808.72	3128.37
808.80	3347.71
808.87	3412.33
808.95	3675.08
809.03	3669.76
809.11	3833.49
809.18	3871.07
809.26	3982.89
809.34	3765.19
809.42	3743.99
809.49	3685.22
809.57	3758.33
809.65	3736.11
809.73	3700.07
809.80	3800.01
809.88	3866.87
809.96	3846.49
810.04	3896.06
810.11	3988.42
810.19	4001.22
810.27	4126.86
810.35	4241.14
810.42	4402.31
810.50	4611.31
810.58	4656.26
810.66	4889.93
810.73	4832.08
810.81	4875.39
810.89	4964.99
810.96	5093.09
811.04	4985.78
811.12	5122.28
811.20	5398.04
811.27	5724.38
811.35	6032.19
811.43	6882.92
811.50	7489.01
811.58	8295.09
811.66	8261.10
811.74	8495.59
811.81	7903.52
811.89	7370.64
811.97	6360.89
812.05	5304.75
812.12	4329.00
812.20	3551.18
812.28	2774.28
812.35	2430.22
812.43	2165.52
812.51	2074.49
812.58	1952.94
812.66	1994.72
812.74	2010.18
812.82	2026.98
812.89	2057.70
812.97	2092.72
813.05	2061.18
813.12	2050.12
813.20	1972.09
813.28	1983.56
813.35	1958.27
813.43	1887.20
813.51	1922.12
813.59	1902.36
813.66	1936.35
813.74	1941.37
813.82	1938.20
813.89	1862.32
813.97	1851.98
814.05	1816.45
814.12	1803.95
814.20	1849.93
814.28	1862.12
814.35	1953.76
814.43	1993.80
814.51	2110.12
814.58	2106.03
814.66	2116.37
814.74	2072.24
814.81	2052.78
814.89	2003.73
814.97	1962.47
815.04	1928.37
815.12	1945.57
815.20	1912.50
815.27	1868.05
815.35	1910.75
815.43	1919.25
815.50	1887.92
815.58	1932.57
815.66	1990.11
815.73	2047.05
815.81	2043.46
815.89	2093.43
815.96	2060.97
816.04	2088.01
816.12	2000.56
816.19	1976.80
816.27	1954.99
816.35	2055.65
816.42	2113.30
816.50	2270.17
816.58	2353.42
816.65	2389.47
816.73	2425.31
816.80	2427.66
816.88	2342.16
816.96	2241.60
817.03	2121.90
817.11	2120.06
817.19	2075.21
817.26	2087.90
817.34	2104.70
817.42	2164.50
817.49	2138.39
817.57	2211.50
817.64	2241.40
817.72	2194.91
817.80	2201.87
817.87	2206.28
817.95	2198.08
818.03	2308.78
818.10	2415.89
818.18	2759.74
818.25	3336.86
818.33	3918.89
818.41	4332.07
818.48	4718.21
818.56	5240.75
818.63	5674.10
818.71	5603.04
818.79	5176.65
818.86	4570.14
818.94	4181.85
819.02	3669.65
819.09	3072.16
819.17	2485.93
819.24	2198.19
819.32	1891.50
819.40	1809.07
819.47	1723.78
819.55	1696.74
819.62	1742.62
819.70	1730.12
819.78	1816.24
819.85	2016.23
819.93	2159.79
820.00	2304.37
820.08	2327.21
820.16	2358.65
820.23	2262.70
820.31	2155.69
820.38	1980.90
820.46	1821.77
820.53	1645.85
820.61	1594.75
820.69	1542.84
820.76	1618.20
820.84	1736.88
820.91	1892.43
820.99	1956.63
821.07	2076.13
821.14	2221.33
821.22	2477.43
821.29	2850.57
821.37	3625.01
821.44	4696.09
821.52	5405.10
821.60	5610.31
821.67	5855.96
821.75	5671.95
821.82	5435.10
821.90	4616.22
821.97	3649.69
822.05	3407.21
822.12	3585.79
822.20	3545.75
822.28	3524.04
822.35	3345.97
822.43	3144.55
822.50	2909.34
822.58	2512.04
822.65	1984.99
822.73	1754.60
822.80	1565.57
822.88	1488.67
822.96	1477.20
823.03	1458.05
823.11	1438.39
823.18	1424.16
823.26	1444.43
823.33	1451.50
823.41	1458.15
823.48	1458.77
823.56	1460.61
823.63	1481.40
823.71	1512.22
823.79	1551.64
823.86	1625.68
823.94	1881.16
824.01	2322.19
824.09	2715.61
824.16	2826.61
824.24	3020.14
824.31	3075.84
824.39	3070.52
824.46	2865.11
824.54	2476.71
824.61	2190.30
824.69	2059.64
824.76	1887.10
824.84	1837.34
824.91	1807.64
824.99	1869.90
825.06	1834.26
825.14	1842.76
825.21	1765.86
825.29	1806.51
825.36	1776.61
825.44	1742.92
825.51	1724.49
825.59	1736.68
825.67	1756.03
825.74	1785.21
825.82	1767.29
825.89	1825.25
825.97	1896.11
826.04	1888.33
826.12	1956.12
826.19	2021.35
826.27	1998.20
826.34	2042.13
826.41	2030.66
826.49	2033.63
826.56	1990.52
826.64	2011.82
826.71	1884.85
826.79	1892.63
826.86	1838.67
826.94	1870.92
827.01	1879.11
827.09	1897.14
827.16	1879.22
827.24	1977.52
827.31	2032.61
827.39	2170.23
827.46	2186.10
827.54	2323.63
827.61	2380.76
827.69	2594.37
827.76	2720.21
827.84	2963.10
827.91	3065.50
827.99	3263.75
828.06	3352.32
828.14	3399.73
828.21	3332.05
828.28	3126.02
828.36	2877.60
828.43	2681.71
828.51	2411.89
828.58	2188.56
828.66	1982.33
828.73	1841.02
828.81	1722.85
828.88	1749.99
828.96	1664.79
829.03	1692.54
829.11	1677.70
829.18	1724.59
829.25	1778.66
829.33	1818.90
829.40	1796.89
829.48	1830.58
829.55	1827.91
829.63	1871.02
829.70	1852.29
829.78	1853.51
829.85	1876.35
829.92	1895.91
830.00	1884.03
830.07	1902.77
830.15	1965.13
830.22	1997.08
830.30	2029.64
830.37	2049.30
830.44	1990.63
830.52	2024.52
830.59	1954.17
830.67	1942.09
830.74	1887.00
830.82	1877.88
830.89	1852.69
830.96	1894.99
831.04	1900.51
831.11	1995.03
831.19	2027.90
831.26	2035.89
831.34	1992.98
831.41	2029.54
831.48	1999.53
831.56	1979.05
831.63	1927.86
831.71	1930.21
831.78	1868.77
831.85	1885.77
831.93	1948.34
832.00	1918.23
832.08	1933.59
832.15	1954.89
832.22	1924.37
832.30	1938.40
832.37	1911.68
832.45	1888.74
832.52	1868.67
832.59	1930.11
832.67	1941.68
832.74	1967.18
832.82	2022.16
832.89	2073.36
832.96	2150.06
833.04	2258.19
833.11	2309.08
833.19	2334.79
833.26	2345.13
833.33	2338.68
833.41	2331.31
833.48	2290.24
833.56	2195.83
833.63	2163.06
833.70	2066.50
833.78	2079.61
833.85	2039.67
833.92	2023.70
834.00	2007.32
834.07	1966.66
834.15	1885.05
834.22	1880.34
834.29	1834.78
834.37	1825.35
834.44	1830.68
834.51	1822.69
834.59	1837.23
834.66	1884.03
834.73	1955.61
834.81	2028.82
834.88	2047.56
834.96	2097.53
835.03	2123.54
835.10	2152.11
835.18	2101.63
835.25	2086.98
835.32	2063.43
835.40	2040.80
835.47	2036.30
835.54	1997.18
835.62	2075.00
835.69	2075.51
835.76	2096.20
835.84	2137.06
835.91	2168.59
835.98	2179.24
836.06	2199.83
836.13	2233.72
836.21	2248.87
836.28	2298.13
836.35	2322.09
836.43	2355.47
836.50	2352.40
836.57	2314.31
836.65	2311.13
836.72	2277.75
836.79	2252.36
836.87	2272.02
836.94	2287.38
837.01	2317.28
837.08	2418.86
837.16	2444.97
837.23	2454.39
837.30	2537.64
837.38	2506.00
837.45	2501.59
837.52	2475.58
837.60	2538.97
837.67	2517.98
837.74	2547.26
837.82	2588.84
837.89	2592.52
837.96	2623.96
838.04	2655.91
838.11	2653.04
838.18	2603.89
838.26	2547.06
838.33	2494.22
838.40	2463.40
838.47	2509.27
838.55	2478.76
838.62	2575.83
838.69	2593.75
838.77	2698.71
838.84	2735.78
838.91	2818.93
838.99	2817.80
839.06	2827.22
839.13	2868.28
839.20	2940.06
839.28	3001.09
839.35	3107.18
839.42	3276.24
839.50	3515.95
839.57	3761.20
839.64	4062.45
839.71	4257.11
839.79	4481.88
839.86	4601.99
839.93	4780.68
840.01	4727.12
840.08	4686.26
840.15	4397.40
840.22	4215.64
840.30	3855.81
840.37	3595.72
840.44	3147.22
840.51	2809.61
840.59	2446.91
840.66	2213.34
840.73	2090.16
840.81	2061.79
840.88	1992.37
840.95	2019.30
841.02	1958.78
841.10	1941.68
841.17	1904.41
841.24	1888.02
841.31	1841.12
841.39	1804.06
841.46	1923.76
841.53	2049.20
841.60	2121.80
841.68	2204.23
841.75	2232.08
841.82	2297.62
841.89	2254.81
841.97	2235.26
842.04	2193.78
842.11	2161.12
842.18	2174.94
842.26	2252.36
842.33	2213.14
842.40	2246.21
842.47	2264.54
842.55	2250.21
842.62	2185.08
842.69	2213.96
842.76	2238.23
842.84	2327.52
842.91	2450.80
842.98	2643.21
843.05	2724.52
843.12	2818.72
843.20	2799.06
843.27	2805.92
843.34	2785.44
843.41	2733.12
843.49	2661.03
843.56	2659.08
843.63	2613.41
843.70	2658.16
843.77	2668.30
843.85	2752.98
843.92	2797.42
843.99	2851.90
844.06	2944.26
844.14	3054.65
844.21	3127.76
844.28	3240.40
844.35	3249.20
844.42	3297.23
844.50	3285.15
844.57	3374.75
844.64	3318.63
844.71	3407.31
844.78	3407.10
844.86	3421.03
844.93	3475.10
845.00	3492.61
845.07	3525.89
845.14	3557.22
845.22	3503.77
845.29	3517.90
845.36	3578.42
845.43	3604.94
845.50	3638.42
845.57	3668.01
845.65	3767.34
845.72	3900.15
845.79	4085.19
845.86	4249.33
845.93	4312.20
846.01	4438.77
846.08	4490.17
846.15	4491.09
846.22	4445.63
846.29	4496.52
846.36	4279.13
846.44	4285.58
846.51	4381.94
846.58	4516.69
846.65	4687.49
846.72	4997.66
846.80	5291.23
846.87	5628.02
846.94	5994.40
847.01	6238.22
847.08	6502.10
847.15	6697.68
847.22	6667.26
847.30	6652.42
847.37	6499.43
847.44	6401.03
847.51	6152.71
847.58	6029.73
847.65	5773.84
847.73	5769.13
847.80	5740.56
847.87	5678.30
847.94	5634.06
848.01	5668.98
848.08	5692.53
848.15	5766.26
848.23	5745.27
848.30	5766.57
848.37	5622.19
848.44	5651.78
848.51	5620.65
848.58	5642.15
848.65	5511.70
848.73	5559.52
848.80	5601.71
848.87	5793.70
848.94	5826.88
849.01	6022.36
849.08	5988.06
849.15	6056.05
849.23	6035.57
849.30	6089.12
849.37	5927.95
849.44	5915.15
849.51	5731.65
849.58	5580.10
849.65	5420.77
849.72	5347.04
849.79	5321.24
849.87	5365.58
849.94	5266.56
850.01	5319.50
850.08	5412.78
850.15	5570.27
850.22	5664.07
850.29	5746.19
850.36	5774.15
850.44	5969.62
850.51	6021.54
850.58	6070.49
850.65	6100.69
850.72	6134.90
850.79	6259.62
850.86	6476.39
850.93	6664.50
851.00	6832.33
851.07	6693.17
851.15	6729.11
851.22	6511.52
851.29	6431.75
851.36	6255.73
851.43	5977.82
851.50	5829.95
851.57	6068.44
851.64	5987.65
851.71	6029.02
851.78	6237.50
851.85	6617.40
851.92	6890.70
852.00	7228.31
852.07	7328.66
852.14	7469.56
852.21	7690.33
852.28	7671.38
852.35	7360.71
852.42	7253.70
852.49	6883.73
852.56	6603.88
852.63	6369.80
852.70	6351.37
852.77	6342.87
852.84	6335.49
852.92	6287.16
852.99	6260.64
853.06	6358.02
853.13	6438.40
853.20	6567.43
853.27	6872.47
853.34	7157.24
853.41	7469.66
853.48	7621.31
853.55	7871.98
853.62	8087.33
853.69	8196.38
853.76	8293.66
853.83	8028.14
853.90	7880.48
853.97	7668.31
854.04	7316.47
854.11	6883.12
854.18	6396.01
854.26	6013.55
854.33	5418.41
854.40	5142.55
854.47	4704.70
854.54	4491.09
854.61	4263.15
854.68	4123.28
854.75	4049.04
854.82	4162.50
854.89	4212.36
854.96	4508.40
855.03	4681.96
855.10	5092.38
855.17	5627.51
855.24	6279.69
855.31	6899.40
855.38	7085.15
855.45	6994.22
855.52	6952.03
855.59	6848.92
855.66	6636.95
855.73	6205.35
855.80	5710.25
855.87	5248.33
855.94	5014.55
856.01	4848.36
856.08	4661.18
856.15	4332.48
856.22	4038.08
856.29	3742.15
856.36	3608.93
856.43	3446.94
856.50	3358.46
856.57	3273.47
856.64	3313.61
856.71	3348.22
856.78	3421.54
856.85	3349.86
856.92	3250.23
856.99	3090.90
857.06	2899.21
857.13	2769.26
857.20	2683.86
857.27	2655.40
857.34	2694.31
857.41	2767.62
857.48	2913.13
857.55	3057.82
857.62	3150.60
857.69	3181.42
857.76	3147.93
857.83	3054.65
857.90	2985.94
857.97	2818.72
858.04	2807.05
858.11	2780.53
858.18	2980.31
858.25	3159.40
858.32	3269.27
858.39	3229.03
858.46	3314.33
858.53	3304.60
858.60	3206.20
858.67	3059.77
858.74	2994.23
858.81	2948.46
858.88	3236.51
858.95	3526.40
859.02	3871.17
859.09	4194.44
859.16	4445.42
859.23	4619.91
859.29	4808.73
859.36	4657.80
859.43	4501.74
859.50	4305.65
859.57	4263.97
859.64	4251.38
859.71	4303.60
859.78	4278.82
859.85	4268.58
859.92	4289.37
859.99	4201.41
860.06	4050.57
860.13	3963.13
860.20	3876.60
860.27	4037.37
860.34	4141.81
860.41	4464.98
860.48	4721.08
860.54	4979.43
860.61	4959.16
860.68	5090.12
860.75	4959.67
860.82	4932.12
860.89	4907.75
860.96	4855.73
861.03	4841.19
861.10	5022.75
861.17	5002.57
861.24	5116.75
861.31	5068.31
861.38	5199.90
861.45	5112.86
861.51	5191.29
861.58	5305.67
861.65	5564.13
861.72	5683.42
861.79	5885.35
861.86	5968.91
861.93	6061.68
862.00	6050.62
862.07	6125.99
862.14	6110.42
862.21	6284.91
862.27	6395.81
862.34	6453.66
862.41	6633.99
862.48	7073.48
862.55	7499.66
862.62	8055.17
862.69	8226.18
862.76	8499.58
862.83	8721.38
862.90	9063.08
862.96	8923.72
863.03	8911.33
863.10	8630.96
863.17	8544.23
863.24	8468.66
863.31	8732.85
863.38	8664.14
863.45	8813.02
863.52	8949.62
863.58	9114.69
863.65	9092.78
863.72	9073.63
863.79	8945.94
863.86	8965.90
863.93	8865.96
864.00	8735.92
864.07	8684.82
864.13	8879.89
864.20	9082.23
864.27	9529.10
864.34	9693.65
864.41	10085.32
864.48	10266.67
864.55	10739.14
864.62	10780.81
864.68	10885.98
864.75	10866.21
864.82	10968.41
864.89	10956.63
864.96	10959.70
865.03	11079.92
865.10	11393.98
865.16	11809.92
865.23	12037.24
865.30	12226.99
865.37	12576.37
865.44	12964.26
865.51	13357.57
865.58	13415.01
865.64	13424.95
865.71	13521.51
865.78	13840.28
865.85	13987.73
865.92	13969.71
865.99	13784.67
866.05	13654.11
866.12	13513.83
866.19	13682.89
866.26	13612.54
866.33	13624.62
866.40	13294.29
866.46	13332.79
866.53	13305.55
866.60	13869.77
866.67	14033.91
866.74	14226.83
866.81	14116.44
866.87	14342.23
866.94	14309.98
867.01	14587.58
867.08	14253.45
867.15	14253.66
867.21	13751.19
867.28	13321.12
867.35	12905.99
867.42	12611.08
867.49	12512.78
867.56	13053.96
867.62	13670.91
867.69	14603.66
867.76	15035.37
867.83	15790.86
867.90	16722.18
867.96	18094.52
868.03	18785.40
868.10	19442.60
868.17	18684.03
868.24	18705.84
868.30	18663.96
868.37	19198.27
868.44	18743.11
868.51	17948.60
868.58	17582.43
868.64	17470.91
868.71	17338.62
868.78	17325.20
868.85	16807.37
868.92	16251.35
868.98	15533.64
869.05	15063.63
869.12	14500.03
869.19	13731.12
869.25	12655.01
869.32	11965.46
869.39	11588.53
869.46	11430.02
869.53	11262.70
869.59	11269.77
869.66	11213.76
869.73	11617.92
869.80	12151.72
869.86	13033.38
869.93	13632.82
870.00	14256.42
870.07	14429.37
870.14	14845.62
870.20	14611.54
870.27	14364.35
870.34	13682.07
870.41	13124.10
870.47	12121.31
870.54	11609.63
870.61	11042.95
870.68	10974.45
870.74	10793.51
870.81	10731.25
870.88	10434.71
870.95	10376.24
871.01	10294.22
871.08	10229.50
871.15	10061.26
871.22	10092.19
871.28	9881.86
871.35	9939.00
871.42	10112.56
871.49	10429.28
871.55	10638.58
871.62	11066.30
871.69	11360.08
871.76	11758.72
871.82	11937.30
871.89	12154.18
871.96	11990.35
872.02	11757.39
872.09	11135.83
872.16	10774.57
872.23	9934.70
872.29	9355.02
872.36	8521.80
872.43	7923.39
872.50	7356.82
872.56	6966.37
872.63	6531.69
872.70	6179.13
872.76	5756.84
872.83	5589.42
872.90	5211.98
872.97	5119.21
873.03	5042.92
873.10	5108.45
873.17	5048.75
873.23	5108.66
873.30	5035.55
873.37	5149.41
873.44	5002.37
873.50	5032.06
873.57	4804.23
873.64	4755.49
873.70	4710.23
873.77	4760.61
873.84	4672.44
873.91	4772.48
873.97	4827.78
874.04	5043.84
874.11	5096.06
874.17	5342.64
874.24	5384.93
874.31	5369.16
874.37	5201.84
874.44	5139.38
874.51	4964.28
874.57	4836.69
874.64	4622.16
874.71	4519.36
874.77	4283.33
874.84	4262.33
874.91	4155.23
874.98	4114.98
875.04	3985.04
875.11	3869.84
875.18	3593.47
875.24	3429.63
875.31	3203.13
875.38	3181.62
875.44	3137.18
875.51	3196.57
875.58	3141.58
875.64	3286.38
875.71	3333.17
875.78	3501.41
875.84	3561.52
875.91	3562.13
875.98	3467.42
876.04	3398.19
876.11	3297.74
876.18	3271.63
876.24	3236.10
876.31	3321.40
876.37	3356.31
876.44	3545.03
876.51	3648.97
876.57	3742.36
876.64	3690.34
876.71	3733.96
876.77	3614.05
876.84	3550.46
876.91	3361.02
876.97	3285.66
877.04	3228.32
877.11	3362.76
877.17	3456.56
877.24	3717.58
877.31	3898.31
877.37	3977.05
877.44	4089.90
877.50	4149.18
877.57	4125.33
877.64	4118.36
877.70	4013.51
877.77	3919.40
877.84	3840.15
877.90	3981.76
877.97	4098.80
878.03	4236.63
878.10	4274.52
878.17	4359.10
878.23	4315.89
878.30	4353.88
878.37	4249.02
878.43	4207.65
878.50	4071.98
878.56	4080.37
878.63	4165.26
878.70	4345.99
878.76	4452.18
878.83	4705.41
878.89	4885.22
878.96	5050.29
879.03	5093.20
879.09	5091.15
879.16	5016.29
879.22	4985.27
879.29	4989.67
879.36	5109.78
879.42	5069.23
879.49	5143.27
879.55	5269.63
879.62	5346.63
879.69	5297.89
879.75	5433.06
879.82	5403.87
879.88	5424.05
879.95	5335.88
880.02	5404.28
880.08	5504.02
880.15	5682.40
880.21	5802.20
880.28	5937.47
880.34	6025.64
880.41	6133.67
880.48	6135.30
880.54	6214.05
880.61	6193.57
880.67	6352.90
880.74	6428.88
880.80	6540.39
880.87	6574.70
880.94	6569.68
881.00	6687.95
881.07	6879.13
881.13	6833.56
881.20	6863.77
881.26	6871.34
881.33	6925.41
881.40	7055.35
881.46	7116.49
881.53	7073.68
881.59	7150.28
881.66	7118.64
881.72	7333.67
881.79	7393.17
881.85	7726.78
881.92	7683.16
881.99	8048.21
882.05	8142.72
882.12	8393.60
882.18	8439.27
882.25	8557.95
882.31	8556.41
882.38	8700.28
882.44	8523.24
882.51	8724.04
882.57	8631.37
882.64	8736.12
882.71	8726.29
882.77	8871.39
882.84	9008.50
882.90	9335.77
882.97	9504.73
883.03	9750.28
883.10	9921.28
883.16	10165.60
883.23	10300.87
883.29	10540.38
883.36	10435.73
883.42	10459.59
883.49	10301.18
883.55	10518.98
883.62	10469.63
883.68	10558.61
883.75	10369.68
883.81	10614.11
883.88	10720.81
883.94	10944.65
884.01	11080.64
884.07	11236.08
884.14	11184.37
884.20	11463.10
884.27	11662.98
884.34	11923.99
884.40	11886.31
884.47	11985.84
884.53	12011.34
884.60	12298.87
884.66	12092.85
884.73	12238.97
884.79	12136.98
884.86	12067.14
884.92	11977.95
884.98	11900.34
885.05	11883.24
885.11	11869.21
885.18	11851.08
885.24	11887.95
885.31	11720.12
885.37	11922.76
885.44	11986.04
885.50	12352.94
885.57	12365.02
885.63	12394.92
885.70	12589.48
885.76	12619.07
885.83	12644.88
885.89	12858.38
885.96	12637.30
886.02	12557.63
886.09	12275.32
886.15	11959.42
886.22	11676.80
886.28	11380.26
886.35	10889.05
886.41	10670.33
886.47	10318.38
886.54	10110.72
886.60	9713.00
886.67	9657.09
886.73	9404.37
886.80	9323.68
886.86	9283.95
886.93	9380.00
886.99	9251.49
887.06	9388.20
887.12	9319.69
887.19	9422.91
887.25	9365.57
887.31	9495.20
887.38	9447.69
887.44	9645.52
887.51	9628.53
887.57	9809.46
887.64	9766.56
887.70	10076.72
887.77	10125.46
887.83	10583.39
887.89	10510.18
887.96	10583.29
888.02	10425.70
888.09	10467.37
888.15	10216.60
888.22	10156.90
888.28	9892.41
888.34	9684.23
888.41	9250.06
888.47	9231.83
888.54	8967.65
888.60	8962.12
888.67	8817.02
888.73	8919.93
888.79	8887.57
888.86	9129.84
888.92	9136.50
888.99	9553.57
889.05	9709.42
889.11	10034.84
889.18	10093.52
889.24	10251.82
889.31	10124.34
889.37	10127.92
889.44	9779.77
889.50	9543.02
889.56	8998.06
>>>>>End Processed Spectral Data<<<<<
