SpectraSuite Data File
++++++++++++++++++++++++++++++++++++
Date: Wed Jul 12 16:47:07 CDT 2017
User: Owner
Dark Spectrum Present: Yes
Reference Spectrum Present: Yes
Number of Sampled Component Spectra: 1
Spectrometers: USB4H04489
Integration Time (usec): 41000 (USB4H04489)
Spectra Averaged: 20 (USB4H04489)
Boxcar Smoothing: 0 (USB4H04489)
Correct for Electrical Dark: No (USB4H04489)
Strobe/Lamp Enabled: No (USB4H04489)
Correct for Detector Non-linearity: No (USB4H04489)
Correct for Stray Light: No (USB4H04489)
Number of Pixels in Processed Spectrum: 3648
>>>>>Begin Processed Spectral Data<<<<<
580.28	2.97
580.38	2.97
580.48	2.97
580.59	22.73
580.69	-3.07
580.79	-13.31
580.90	-26.11
581.00	-50.69
581.11	-32.26
581.21	-52.84
581.31	-41.57
581.42	-22.73
581.52	-44.34
581.62	-12.29
581.73	-17.00
581.83	-8.19
581.93	0.10
582.04	114.38
582.14	6758.91
582.25	10629.06
582.35	10803.85
582.45	11053.40
582.56	11439.24
582.66	11697.90
582.76	12151.11
582.87	12477.45
582.97	12930.06
583.07	12814.14
583.18	13301.56
583.28	13377.54
583.38	13536.05
583.49	13199.16
583.59	13209.09
583.70	12762.43
583.80	12477.86
583.90	12141.38
584.01	12157.05
584.11	12126.84
584.21	12539.61
584.32	12488.51
584.42	12933.64
584.52	12942.86
584.63	12946.95
584.73	12866.67
584.83	13173.46
584.94	13022.21
585.04	12755.16
585.14	12354.47
585.25	11944.27
585.35	11323.42
585.45	11249.90
585.56	10987.35
585.66	11517.47
585.76	11189.69
585.87	10507.31
585.97	9742.80
586.07	9007.89
586.18	8249.63
586.28	8139.04
586.38	8314.86
586.49	8862.18
586.59	9060.83
586.69	9450.76
586.80	9646.96
586.90	10128.74
587.00	10275.79
587.11	10676.06
587.21	10832.94
587.31	11103.16
587.41	11396.43
587.52	11816.06
587.62	12104.31
587.72	12536.85
587.83	12825.92
587.93	13386.65
588.03	13685.35
588.14	13812.01
588.24	14060.33
588.34	14343.97
588.45	14351.55
588.55	14510.98
588.65	14338.34
588.75	13968.38
588.86	13601.99
588.96	13348.56
589.06	12920.63
589.17	13262.75
589.27	13374.77
589.37	13626.57
589.48	14029.10
589.58	14193.96
589.68	14266.36
589.78	14491.43
589.89	14332.71
589.99	14718.03
590.09	14730.12
590.20	14303.01
590.30	13729.17
590.40	13380.30
590.50	12697.51
590.61	12560.09
590.71	12471.21
590.81	13211.34
590.92	12857.25
591.02	12403.32
591.12	11400.33
591.22	10360.98
591.33	9371.81
591.43	9074.34
591.53	8925.15
591.64	9206.95
591.74	9604.97
591.84	10004.02
591.94	10212.20
592.05	10411.16
592.15	10783.58
592.25	11179.35
592.35	11257.68
592.46	11683.76
592.56	11848.42
592.66	12486.36
592.76	12755.57
592.87	13142.23
592.97	13233.15
593.07	13805.77
593.18	13631.69
593.28	13795.73
593.38	13793.89
593.48	13903.25
593.59	13924.86
593.69	14377.66
593.79	14321.34
593.89	14195.50
594.00	13793.27
594.10	13513.01
594.20	13149.60
594.30	12988.83
594.41	13006.24
594.51	13280.97
594.61	13331.66
594.71	13837.92
594.82	14177.58
594.92	14360.66
595.02	14432.65
595.12	14513.65
595.23	14697.35
595.33	14784.59
595.43	14624.85
595.53	14343.77
595.64	13860.55
595.74	13333.81
595.84	12645.70
595.94	12672.01
596.04	12714.61
596.15	12480.94
596.25	11392.54
596.35	10651.49
596.45	9296.14
596.56	8173.65
596.66	7528.64
596.76	7599.50
596.86	7735.79
596.97	8136.78
597.07	8322.02
597.17	8622.77
597.27	8835.24
597.37	9331.26
597.48	9428.34
597.58	9742.60
597.68	9742.19
597.78	10245.89
597.89	10387.09
597.99	10909.84
598.09	11081.15
598.19	11454.90
598.29	11772.95
598.40	12370.86
598.50	12853.26
598.60	12958.93
598.70	13252.92
598.80	13521.92
598.91	13667.84
599.01	13841.50
599.11	14000.63
599.21	14399.68
599.31	13707.57
599.42	13391.67
599.52	13090.72
599.62	12693.21
599.72	12340.04
599.82	12451.65
599.93	12724.54
600.03	13028.36
600.13	13249.85
600.23	13622.99
600.33	13697.02
600.44	13726.00
600.54	13762.35
600.64	14009.23
600.74	13919.63
600.84	14044.76
600.95	13382.76
601.05	12955.55
601.15	12181.83
601.25	11765.48
601.35	11354.25
601.46	11910.99
601.56	11699.74
601.66	11490.54
601.76	10292.68
601.86	9470.42
601.96	8041.04
602.07	7159.60
602.17	6836.94
602.27	6926.84
602.37	7147.31
602.47	7439.25
602.57	7657.46
602.68	7829.79
602.78	7914.27
602.88	8200.89
602.98	8445.31
603.08	8446.64
603.18	8524.06
603.29	8883.47
603.39	8910.40
603.49	9141.21
603.59	9213.09
603.69	9552.85
603.79	9726.11
603.90	10140.82
604.00	10264.52
604.10	10634.69
604.20	10929.50
604.30	11012.34
604.40	10972.91
604.51	11098.25
604.61	11113.00
604.71	11483.06
604.81	11172.49
604.91	11029.13
605.01	10504.54
605.11	10289.20
605.22	9575.28
605.32	9803.32
605.42	9762.05
605.52	10034.64
605.62	10098.12
605.72	10364.05
605.83	10213.73
605.93	10659.57
606.03	10595.47
606.13	10771.19
606.23	10729.10
606.33	10844.40
606.43	10530.04
606.53	10277.63
606.64	9451.68
606.74	9229.27
606.84	8527.43
606.94	8464.97
607.04	8606.18
607.14	8943.27
607.24	8525.18
607.35	7605.44
607.45	6749.18
607.55	5760.22
607.65	4640.80
607.75	4304.32
607.85	4362.38
607.95	4492.12
608.05	4536.15
608.16	4708.89
608.26	4674.80
608.36	4829.21
608.46	4810.06
608.56	4932.64
608.66	4942.06
608.76	4943.59
608.86	5024.38
608.96	5074.66
609.07	5031.96
609.17	5119.41
609.27	5150.23
609.37	5277.00
609.47	5390.87
609.57	5603.75
609.67	5706.15
609.77	5944.84
609.87	5989.90
609.98	6096.19
610.08	6024.61
610.18	6178.82
610.28	6263.41
610.38	6406.97
610.48	6418.13
610.58	6344.30
610.68	6093.32
610.78	5963.17
610.88	5749.88
610.98	5620.75
611.09	5716.90
611.19	5937.57
611.29	5930.41
611.39	6076.22
611.49	6138.99
611.59	6290.64
611.69	6367.34
611.79	6528.92
611.89	6565.79
611.99	6656.00
612.09	6799.36
612.20	6716.72
612.30	6469.33
612.40	6293.51
612.50	6050.11
612.60	5851.76
612.70	5729.09
612.80	5983.65
612.90	6195.72
613.00	6015.19
613.10	5670.31
613.20	5256.01
613.30	4705.52
613.40	4173.66
613.50	4022.83
613.61	4091.23
613.71	4206.43
613.81	4312.51
613.91	4454.95
614.01	4599.02
614.11	4621.65
614.21	4693.94
614.31	4822.25
614.41	4860.96
614.51	5028.38
614.61	5164.16
614.71	5183.20
614.81	5412.17
614.91	5437.25
615.01	5479.03
615.11	5560.54
615.22	5737.90
615.32	5802.00
615.42	5936.14
615.52	6074.99
615.62	6143.19
615.72	6128.75
615.82	6228.49
615.92	6240.67
616.02	6336.11
616.12	6244.56
616.22	6226.54
616.32	6170.84
616.42	6080.83
616.52	5963.17
616.62	5765.03
616.72	5712.50
616.82	5705.64
616.92	5691.51
617.02	5870.09
617.12	5806.81
617.22	5951.19
617.32	5686.70
617.42	5708.41
617.52	5776.81
617.62	5878.08
617.72	5790.73
617.83	5855.35
617.93	5798.93
618.03	5706.05
618.13	5449.24
618.23	5267.99
618.33	5169.99
618.43	5136.61
618.53	5081.01
618.63	5055.62
618.73	5082.55
618.83	5027.56
618.93	4716.78
619.03	4408.76
619.13	4099.73
619.23	3901.79
619.33	3726.48
619.43	3687.06
619.53	3746.96
619.63	3797.96
619.73	3935.99
619.83	3923.70
619.93	3922.17
620.03	4022.21
620.13	4056.62
620.23	4072.49
620.33	4036.34
620.43	4209.91
620.53	4255.17
620.63	4511.06
620.73	4575.37
620.83	4777.50
620.93	4885.74
621.03	5130.06
621.13	5178.49
621.23	5378.48
621.33	5409.81
621.43	5586.04
621.53	5615.63
621.63	5849.51
621.73	6065.57
621.83	6240.37
621.93	6396.32
622.03	6710.07
622.13	6857.01
622.23	7100.92
622.33	7087.71
622.43	7404.33
622.53	7285.55
622.63	7405.05
622.73	7427.37
622.83	7444.26
622.93	7389.58
623.03	7345.96
623.13	7174.24
623.23	7224.72
623.33	7106.35
623.42	7304.39
623.52	7443.65
623.62	7686.64
623.72	7754.33
623.82	7701.18
623.92	7650.19
624.02	7271.21
624.12	6988.90
624.22	6747.03
624.32	6797.72
624.42	6914.04
624.52	6831.00
624.62	6822.71
624.72	6653.44
624.82	6422.33
624.92	6083.70
625.02	6069.36
625.12	6145.03
625.22	6396.01
625.32	6509.78
625.42	6787.38
625.52	6653.44
625.62	6495.13
625.72	6195.31
625.82	6175.85
625.91	5944.74
626.01	6083.70
626.11	6337.44
626.21	6655.39
626.31	6891.21
626.41	7211.92
626.51	7204.45
626.61	7502.02
626.71	7620.80
626.81	7803.99
626.91	7897.89
627.01	8182.15
627.11	8378.14
627.21	8825.72
627.31	9409.49
627.41	9940.12
627.51	10016.92
627.60	9947.91
627.70	9557.26
627.80	9227.53
627.90	8531.84
628.00	8225.67
628.10	8362.57
628.20	8737.86
628.30	9016.90
628.40	9296.45
628.50	9704.40
628.60	10134.68
628.70	10351.56
628.80	11067.94
628.89	11124.36
628.99	11773.77
629.09	12037.04
629.19	12490.87
629.29	12788.03
629.39	13156.25
629.49	13260.70
629.59	13565.44
629.69	13604.04
629.79	13662.92
629.89	13578.75
629.98	13658.11
630.08	13415.63
630.18	13478.30
630.28	13505.23
630.38	13889.43
630.48	14159.45
630.58	14658.34
630.68	15083.49
630.78	15593.85
630.88	15703.82
630.98	16052.29
631.07	16237.73
631.17	16353.95
631.27	16583.84
631.37	17083.23
631.47	17237.34
631.57	17433.85
631.67	17500.92
631.77	17831.15
631.87	18018.95
631.96	18536.17
632.06	19247.42
632.16	18862.30
632.26	17682.78
632.36	16179.36
632.46	13670.29
632.56	11066.10
632.66	8872.11
632.75	7880.58
632.85	7016.34
632.95	6699.01
633.05	6852.09
633.15	6905.65
633.25	6817.38
633.35	7079.01
633.45	7101.23
633.55	7168.91
633.64	7207.72
633.74	7240.90
633.84	7239.77
633.94	7279.91
634.04	7239.16
634.14	7216.12
634.24	7237.73
634.33	7570.32
634.43	7657.87
634.53	8010.42
634.63	8294.07
634.73	8529.38
634.83	8905.59
634.93	9264.91
635.02	9498.27
635.12	10095.26
635.22	10251.52
635.32	10861.81
635.42	11092.62
635.52	11543.48
635.62	12064.48
635.71	12569.92
635.81	12832.67
635.91	13316.51
636.01	13626.77
636.11	13971.75
636.21	14231.44
636.31	14713.32
636.40	14565.36
636.50	14744.76
636.60	14596.49
636.70	14955.09
636.80	14740.77
636.90	14991.44
636.99	14428.66
637.09	14224.88
637.19	13714.02
637.29	13385.63
637.39	12867.18
637.49	13336.27
637.58	13509.73
637.68	13894.34
637.78	14241.47
637.88	14651.58
637.98	14550.61
638.08	14799.44
638.17	14479.86
638.27	14322.98
638.37	14206.45
638.47	14501.05
638.57	14602.84
638.66	14575.09
638.76	14041.08
638.86	13603.43
638.96	12843.22
639.06	11929.42
639.16	11894.19
639.25	12084.96
639.35	12298.26
639.45	12839.54
639.55	12814.96
639.65	12288.84
639.74	11113.00
639.84	10258.07
639.94	9273.61
640.04	8276.46
640.14	7914.17
640.23	8268.88
640.33	8401.18
640.43	8808.01
640.53	8784.45
640.63	9230.81
640.73	9067.38
640.82	9440.21
640.92	9454.14
641.02	9506.57
641.12	9288.97
641.21	9524.28
641.31	9383.38
641.41	9599.85
641.51	9854.72
641.61	10268.11
641.70	10413.61
641.80	11278.78
641.90	11485.93
642.00	12140.97
642.10	12601.15
642.19	13384.81
642.29	13732.86
642.39	14720.49
642.49	15211.08
642.59	16045.22
642.68	16589.57
642.78	17317.32
642.88	18318.57
642.98	18989.38
643.07	19647.70
643.17	20462.18
643.27	20971.92
643.37	22137.21
643.46	21934.56
643.56	22881.95
643.66	23090.64
643.76	23172.25
643.86	23228.06
643.95	23672.88
644.05	23661.82
644.15	24293.11
644.25	24005.57
644.34	23322.27
644.44	22578.14
644.54	22013.00
644.64	21283.41
644.73	21421.14
644.83	21048.72
644.93	22009.93
645.03	22444.30
645.12	22901.62
645.22	23510.99
645.32	23985.71
645.42	23884.85
645.51	23755.93
645.61	23063.20
645.71	23466.14
645.81	23778.45
645.90	24374.31
646.00	24251.02
646.10	23967.99
646.20	23009.24
646.29	21975.63
646.39	20324.14
646.49	19573.36
646.59	19874.41
646.68	20318.51
646.78	21294.37
646.88	21719.02
646.98	21417.35
647.07	19897.86
647.17	17783.33
647.27	16285.75
647.37	14520.41
647.46	13270.63
647.56	13084.06
647.66	13491.30
647.75	13662.31
647.85	14023.06
647.95	14670.32
648.05	14824.84
648.14	14980.79
648.24	15394.58
648.34	15438.61
648.44	15836.94
648.53	15641.67
648.63	15672.29
648.73	15483.57
648.82	15547.15
648.92	15427.55
649.02	15842.98
649.12	16267.02
649.21	16716.95
649.31	17443.88
649.41	18190.47
649.50	18866.30
649.60	20006.71
649.70	20765.17
649.80	21713.59
649.89	22535.23
649.99	23810.20
650.09	24496.47
650.18	25728.63
650.28	26746.16
650.38	27990.72
650.47	28952.75
650.57	30314.65
650.67	31112.23
650.77	32278.75
650.86	33200.54
650.96	34236.82
651.06	34481.34
651.15	35519.25
651.25	35519.05
651.35	36014.25
651.44	36165.90
651.54	36982.94
651.64	36464.70
651.73	37122.81
651.83	36086.75
651.93	35742.89
652.03	33679.77
652.12	32780.40
652.22	31974.73
652.32	32125.15
652.41	32139.18
652.51	33429.71
652.61	34069.80
652.70	35009.92
652.80	35209.91
652.90	36342.64
652.99	36014.55
653.09	36356.57
653.19	35191.07
653.28	35651.96
653.38	35972.16
653.48	36561.36
653.57	36888.93
653.67	36817.46
653.77	35378.15
653.86	33326.49
653.96	31276.89
654.06	29261.58
654.15	28624.15
654.25	29251.44
654.35	30277.58
654.44	31512.61
654.54	31820.31
654.64	30323.76
654.73	27009.43
654.83	24028.10
654.93	21041.85
655.02	18434.07
655.12	16655.41
655.22	16817.61
655.31	17372.82
655.41	18050.49
655.51	17831.36
655.60	18661.71
655.70	19052.66
655.79	19165.81
655.89	19245.48
655.99	19583.50
656.08	19486.73
656.18	19520.21
656.28	19108.57
656.37	19346.75
656.47	18945.66
656.57	19440.75
656.66	19449.05
656.76	20282.88
656.85	20861.53
656.95	21769.50
657.05	22712.49
657.14	23659.36
657.24	24521.97
657.34	25795.40
657.43	26616.94
657.53	27937.67
657.63	28722.45
657.72	30024.25
657.82	31113.25
657.91	32311.01
658.01	33894.50
658.11	35497.03
658.20	37086.46
658.30	38263.02
658.39	39524.47
658.49	41398.25
658.59	42331.10
658.68	43713.79
658.78	44789.28
658.88	45506.58
658.97	45231.23
659.07	46112.47
659.16	46079.71
659.26	46635.53
659.36	46759.63
659.45	47255.96
659.55	46897.67
659.64	46517.77
659.74	44149.39
659.84	43239.07
659.93	41038.53
660.03	40610.50
660.12	40126.57
660.22	41134.89
660.32	41781.94
660.41	43184.29
660.51	44075.46
660.60	45049.68
660.70	45483.65
660.80	46379.32
660.89	45683.01
660.99	45632.63
661.08	45054.90
661.18	46387.31
661.28	46418.65
661.37	47003.85
661.47	46984.40
661.56	45833.64
661.66	43673.34
661.75	40794.62
661.85	37802.64
661.95	36548.66
662.04	36516.92
662.14	37833.77
662.23	39517.20
662.33	40575.89
662.43	39799.92
662.52	37242.31
662.62	32888.53
662.71	29096.52
662.81	24454.79
662.90	21298.98
663.00	19540.49
663.10	19752.97
663.19	20218.57
663.29	20881.50
663.38	20954.30
663.48	21748.92
663.57	22001.64
663.67	22370.78
663.77	22075.57
663.86	22194.96
663.96	22247.70
664.05	22164.14
664.15	21587.74
664.24	21695.26
664.34	20977.34
664.43	20889.69
664.53	20703.63
664.63	20878.94
664.72	21055.27
664.82	21879.88
664.91	22112.64
665.01	23341.93
665.10	23864.26
665.20	25365.83
665.29	25978.48
665.39	27264.40
665.48	28170.94
665.58	29164.61
665.68	30122.34
665.77	31127.59
665.87	32230.62
665.96	33817.80
666.06	34773.38
666.15	36718.34
666.25	37354.85
666.34	38255.13
666.44	39376.19
666.53	41527.58
666.63	41941.48
666.72	42960.24
666.82	44051.19
666.91	44818.26
667.01	44815.90
667.11	45034.01
667.20	45222.53
667.30	45524.09
667.39	45950.79
667.49	46492.88
667.58	45606.11
667.68	45318.68
667.77	43159.51
667.87	42238.23
667.96	39751.69
668.06	38897.99
668.15	38715.52
668.25	39029.06
668.34	39532.35
668.44	40466.33
668.53	41116.56
668.63	41994.52
668.72	42665.95
668.82	43103.29
668.91	43544.73
669.01	43158.28
669.10	42283.80
669.20	43351.91
669.29	43246.24
669.39	43806.77
669.48	44294.90
669.58	44577.83
669.67	42780.63
669.77	40455.98
669.86	37535.68
669.96	35519.05
670.05	33493.91
670.15	34617.74
670.24	35347.33
670.34	37487.86
670.43	38373.92
670.53	38753.10
670.62	36115.93
670.72	32586.05
670.81	28193.16
670.91	24308.37
671.00	20510.10
671.10	19144.51
671.19	18825.85
671.29	19520.93
671.38	19996.57
671.48	20507.85
671.57	20830.30
671.67	21372.50
671.76	21832.06
671.86	22679.31
671.95	22233.26
672.04	22932.13
672.14	23065.96
672.23	23163.55
672.33	22917.59
672.42	22911.34
672.52	22949.74
672.61	23063.51
672.71	22856.66
672.80	23474.43
672.90	23837.23
672.99	24562.52
673.09	25111.89
673.18	26402.82
673.28	26910.72
673.37	28664.09
673.46	29811.97
673.56	31480.86
673.65	32592.19
673.75	34201.39
673.84	35383.78
673.94	37465.75
674.03	39351.72
674.13	42027.19
674.22	44743.41
674.32	48185.12
674.41	48727.53
674.50	48841.49
674.60	46982.76
674.69	44889.94
674.79	41473.11
674.88	38304.49
674.98	35658.31
675.07	35459.76
675.17	34635.66
675.26	34672.62
675.35	34206.91
675.45	34800.01
675.54	34556.91
675.64	35113.76
675.73	35012.69
675.83	35552.43
675.92	35154.61
676.01	34152.03
676.11	32464.40
676.20	31086.83
676.30	29507.85
676.39	29160.00
676.49	28774.58
676.58	29062.93
676.67	29368.49
676.77	30565.42
676.86	30674.99
676.96	31344.98
677.05	31644.60
677.15	32589.22
677.24	32633.67
677.33	32766.89
677.43	32136.32
677.52	32432.04
677.62	32640.22
677.71	33271.20
677.80	33379.33
677.90	33941.50
677.99	32210.25
678.09	30750.66
678.18	28776.11
678.27	26313.94
678.37	24300.17
678.46	24148.73
678.56	24864.18
678.65	25970.39
678.74	27118.08
678.84	28340.71
678.93	26851.74
679.03	25033.35
679.12	21599.41
679.21	18033.80
679.31	14415.24
679.40	11857.74
679.50	10568.75
679.59	10398.56
679.68	10375.11
679.78	10730.54
679.87	10669.10
679.97	10980.80
680.06	10985.92
680.15	11214.27
680.25	11175.66
680.34	11120.27
680.44	10942.40
680.53	10785.22
680.62	10328.52
680.72	10003.10
680.81	9563.40
680.90	9258.97
681.00	8683.18
681.09	8490.57
681.19	8149.69
681.28	8024.45
681.37	7884.99
681.47	8044.42
681.56	8126.75
681.65	8358.68
681.75	8389.61
681.84	8739.81
681.94	9074.55
682.03	9389.83
682.12	9611.73
682.22	9879.30
682.31	10143.08
682.40	10464.92
682.50	10872.26
682.59	11331.10
682.68	11557.71
682.78	12189.71
682.87	12450.83
682.96	13062.87
683.06	13301.45
683.15	13732.55
683.25	14289.80
683.34	14752.85
683.43	14919.76
683.53	15317.78
683.62	15621.50
683.71	16006.51
683.81	16009.59
683.90	16262.72
683.99	16033.85
684.09	16267.53
684.18	16490.65
684.27	16575.24
684.37	16628.69
684.46	16591.52
684.55	16207.32
684.65	15456.94
684.74	14770.26
684.83	14177.68
684.93	13513.32
685.02	13518.64
685.11	13234.18
685.21	13649.20
685.30	13875.60
685.39	14320.11
685.49	14527.78
685.58	14823.30
685.67	14833.34
685.77	15371.44
685.86	15436.67
685.95	15269.25
686.05	15117.18
686.14	15293.41
686.23	14956.62
686.33	15339.90
686.42	15390.69
686.51	15498.82
686.61	15068.34
686.70	14460.50
686.79	13490.89
686.88	12561.42
686.98	11492.38
687.07	11131.94
687.16	11171.26
687.26	11758.31
687.35	12111.58
687.44	12817.42
687.54	12658.90
687.63	12104.52
687.72	10677.80
687.82	9284.57
687.91	7525.06
688.00	6091.68
688.09	5284.89
688.19	4939.80
688.28	4860.03
688.37	4881.44
688.47	4789.48
688.56	4755.79
688.65	4730.09
688.74	4704.59
688.84	4758.66
688.93	4711.04
689.02	4647.56
689.12	4702.34
689.21	4538.20
689.30	4421.15
689.39	4201.00
689.49	4064.50
689.58	3814.65
689.67	3610.47
689.77	3382.22
689.86	3165.75
689.95	2904.12
690.04	2768.34
690.14	2579.52
690.23	2534.87
690.32	2455.92
690.42	2478.66
690.51	2437.59
690.60	2448.86
690.69	2421.01
690.79	2401.76
690.88	2365.71
690.97	2350.76
691.06	2291.78
691.16	2309.80
691.25	2265.26
691.34	2276.01
691.43	2273.96
691.53	2277.85
691.62	2234.23
691.71	2213.65
691.80	2184.57
691.90	2172.69
691.99	2115.65
692.08	2178.63
692.18	2224.09
692.27	2278.57
692.36	2253.99
692.45	2233.82
692.55	2211.40
692.64	2260.14
692.73	2209.25
692.82	2255.33
692.91	2193.48
693.01	2223.48
693.10	2229.01
693.19	2236.89
693.28	2224.61
693.38	2216.52
693.47	2178.32
693.56	2165.62
693.65	2128.35
693.75	2165.73
693.84	2223.27
693.93	2247.85
694.02	2208.22
694.12	2237.00
694.21	2220.20
694.30	2261.78
694.39	2262.29
694.48	2251.74
694.58	2215.49
694.67	2244.78
694.76	2207.61
694.85	2144.12
694.95	2108.38
695.04	2128.25
695.13	2103.06
695.22	2120.57
695.31	2128.76
695.41	2142.38
695.50	2136.24
695.59	2125.07
695.68	2067.83
695.78	2088.83
695.87	2078.89
695.96	2088.62
696.05	2101.93
696.14	2154.77
696.24	2121.80
696.33	2189.79
696.42	2163.27
696.51	2120.36
696.60	2067.22
696.70	2053.60
696.79	1989.60
696.88	1966.15
696.97	1957.76
697.06	1984.69
697.16	2009.06
697.25	2046.43
697.34	2040.60
697.43	2157.74
697.52	2194.71
697.62	2282.15
697.71	2327.31
697.80	2370.83
697.89	2404.93
697.98	2421.72
698.08	2377.59
698.17	2459.20
698.26	2520.13
698.35	2575.42
698.44	2589.55
698.53	2638.91
698.63	2653.76
698.72	2708.95
698.81	2722.88
698.90	2809.10
698.99	2803.46
699.08	2878.93
699.18	2879.85
699.27	2930.75
699.36	2941.19
699.45	3045.94
699.54	3100.42
699.64	3182.85
699.73	3254.22
699.82	3446.73
699.91	3524.14
700.00	3738.98
700.09	3793.86
700.19	3796.42
700.28	3707.13
700.37	3582.72
700.46	3398.71
700.55	3239.78
700.64	3062.63
700.73	3034.88
700.83	2991.26
700.92	2975.80
701.01	2956.14
701.10	2939.35
701.19	2933.92
701.28	2960.13
701.38	2983.89
701.47	3025.36
701.56	3027.51
701.65	3074.72
701.74	3074.92
701.83	3065.50
701.92	3062.33
702.02	3142.10
702.11	3111.48
702.20	3199.85
702.29	3215.93
702.38	3318.73
702.47	3429.32
702.56	3460.76
702.66	3549.23
702.75	3599.51
702.84	3568.38
702.93	3614.15
703.02	3584.15
703.11	3604.73
703.20	3603.61
703.29	3674.88
703.39	3678.15
703.48	3805.74
703.57	3848.65
703.66	4006.44
703.75	4030.61
703.84	4254.25
703.93	4271.24
704.02	4429.65
704.12	4534.10
704.21	4725.48
704.30	4826.76
704.39	5191.29
704.48	5294.31
704.57	5460.81
704.66	5606.93
704.75	5574.06
704.84	5470.12
704.94	5627.10
705.03	5585.02
705.12	5689.67
705.21	5676.66
705.30	5856.68
705.39	5945.05
705.48	6118.61
705.57	6196.33
705.66	6425.09
705.75	6624.15
705.85	6828.44
705.94	6889.78
706.03	7061.81
706.12	7151.20
706.21	7310.33
706.30	7357.63
706.39	7644.25
706.48	7990.05
706.57	8284.14
706.66	8418.18
706.75	8914.81
706.85	9307.92
706.94	9826.46
707.03	10309.07
707.12	11194.71
707.21	11970.89
707.30	12781.58
707.39	12677.64
707.48	12063.05
707.57	11287.99
707.66	10017.02
707.75	8476.24
707.84	7236.40
707.93	6196.74
708.03	5735.34
708.12	5483.23
708.21	5364.76
708.30	5219.35
708.39	5250.58
708.48	5287.65
708.57	5500.64
708.66	5451.28
708.75	5537.40
708.84	5559.52
708.93	5764.32
709.02	5698.27
709.11	5700.21
709.20	5692.23
709.29	5820.43
709.39	5857.09
709.48	6045.81
709.57	6193.88
709.66	6443.73
709.75	6538.55
709.84	6671.67
709.93	6677.91
710.02	6840.52
710.11	6846.26
710.20	6942.41
710.29	7013.06
710.38	7196.56
710.47	7183.76
710.56	7453.07
710.65	7588.75
710.74	7674.66
710.83	7803.38
710.92	8093.27
711.01	8317.11
711.10	8601.67
711.19	8732.44
711.28	9082.74
711.38	9202.85
711.47	9456.09
711.56	9683.10
711.65	10012.52
711.74	10338.25
711.83	10668.38
711.92	10827.82
712.01	11100.91
712.10	11362.85
712.19	11668.10
712.28	11927.17
712.37	12430.76
712.46	12758.54
712.55	13008.19
712.64	13244.42
712.73	13485.06
712.82	13926.49
712.91	14296.46
713.00	14493.88
713.09	14500.03
713.18	14589.63
713.27	14636.22
713.36	14361.28
713.45	14725.30
713.54	14469.62
713.63	14885.25
713.72	15229.62
713.81	15453.97
713.90	15613.92
713.99	16101.54
714.08	16621.83
714.17	17232.63
714.26	17646.83
714.35	18231.12
714.44	18491.93
714.53	18976.38
714.62	19339.07
714.71	20405.65
714.80	21205.39
714.89	22350.81
714.98	23509.55
715.07	25618.04
715.16	27283.24
715.25	29944.07
715.34	30770.01
715.43	30671.30
715.52	28874.52
715.61	25739.18
715.70	22144.89
715.79	18112.13
715.88	14112.35
715.97	11546.35
716.06	9899.47
716.15	9182.07
716.24	8808.21
716.33	8651.64
716.42	8417.56
716.51	8294.68
716.60	7771.12
716.69	7312.17
716.78	6679.65
716.87	6118.82
716.96	5657.00
717.05	5444.63
717.13	5299.12
717.22	5347.66
717.31	5308.33
717.40	5340.90
717.49	5284.27
717.58	5334.55
717.67	5301.37
717.76	5475.14
717.85	5534.64
717.94	5540.57
718.03	5463.06
718.12	5367.83
718.21	5256.32
718.30	5165.80
718.39	5008.10
718.48	4955.57
718.57	5082.96
718.66	5187.50
718.75	5324.41
718.84	5294.10
718.93	5256.21
719.02	5341.00
719.10	5399.57
719.19	5541.70
719.28	5569.14
719.37	5688.13
719.46	5910.03
719.55	6290.85
719.64	6212.72
719.73	6257.98
719.82	6301.40
719.91	6603.27
720.00	6717.64
720.09	6876.57
720.18	7034.67
720.27	7439.55
720.36	7625.30
720.44	7752.69
720.53	7789.35
720.62	8065.82
720.71	8200.58
720.80	8352.03
720.89	8674.68
720.98	9059.70
721.07	9259.38
721.16	9631.39
721.25	9710.55
721.34	9868.85
721.43	9851.14
721.52	10206.87
721.60	10648.41
721.69	11296.80
721.78	11543.38
721.87	12019.73
721.96	12374.03
722.05	12810.66
722.14	12826.74
722.23	13215.34
722.32	13460.58
722.41	14579.49
722.50	15032.40
722.58	15386.29
722.67	15587.81
722.76	16187.86
722.85	16186.33
722.94	16729.75
723.03	16682.04
723.12	17250.25
723.21	17189.83
723.30	17563.07
723.38	17303.19
723.47	17220.14
723.56	17377.42
723.65	17879.28
723.74	17920.65
723.83	18124.63
723.92	17593.69
724.01	17499.89
724.10	16686.85
724.18	16298.55
724.27	15687.85
724.36	15768.34
724.45	15522.07
724.54	15818.41
724.63	15843.80
724.72	16315.66
724.81	16546.36
724.89	17049.75
724.98	17365.24
725.07	17885.73
725.16	18090.22
725.25	18041.58
725.34	17530.41
725.43	17230.69
725.52	16779.93
725.60	16707.43
725.69	16557.21
725.78	17152.56
725.87	17863.61
725.96	18737.28
726.05	18833.94
726.14	18696.62
726.22	17498.05
726.31	16687.46
726.40	15391.71
726.49	14480.57
726.58	13823.99
726.67	14022.54
726.76	14108.25
726.84	14735.95
726.93	15033.32
727.02	15774.68
727.11	16481.64
727.20	16971.62
727.29	16989.54
727.38	16528.23
727.46	15468.00
727.55	14221.40
727.64	12673.45
727.73	11416.50
727.82	10585.03
727.91	10145.23
727.99	9929.58
728.08	10148.91
728.17	10336.51
728.26	10764.53
728.35	10846.76
728.44	10975.47
728.52	11073.47
728.61	11297.31
728.70	11204.13
728.79	11299.36
728.88	11155.59
728.97	11293.22
729.05	10960.63
729.14	10730.43
729.23	10318.79
729.32	10145.33
729.41	9645.73
729.49	9491.11
729.58	9475.23
729.67	9703.28
729.76	9759.49
729.85	9804.34
729.94	9672.45
730.02	9919.03
730.11	10063.92
730.20	10390.16
730.29	10364.57
730.38	10709.03
730.46	10943.32
730.55	11448.04
730.64	11584.23
730.73	11620.69
730.82	11568.87
730.90	12034.48
730.99	12297.64
731.08	12522.51
731.17	12503.67
731.26	13057.95
731.34	13574.86
731.43	14042.51
731.52	13974.11
731.61	14260.31
731.70	14552.35
731.78	14996.25
731.87	15071.00
731.96	15814.72
732.05	16511.03
732.13	17237.86
732.22	17450.84
732.31	17950.75
732.40	18108.75
732.49	18457.83
732.57	18319.69
732.66	19290.53
732.75	20408.32
732.84	21016.77
732.93	21302.87
733.01	22297.67
733.10	22626.16
733.19	23465.73
733.28	23340.90
733.36	24061.79
733.45	24955.42
733.54	26606.19
733.63	27151.25
733.71	27779.26
733.80	28332.01
733.89	29314.32
733.98	29579.32
734.07	30315.77
734.15	30571.77
734.24	31638.15
734.33	32043.75
734.42	32425.28
734.50	31611.32
734.59	31756.32
734.68	31072.50
734.77	31639.68
734.85	31595.14
734.94	32490.72
735.03	31610.30
735.12	31544.25
735.20	29918.67
735.29	29027.29
735.38	27076.40
735.47	26177.03
735.55	25320.37
735.64	25481.24
735.73	25247.05
735.82	26017.80
735.90	26422.69
735.99	27182.69
736.08	27773.53
736.17	28526.46
736.25	29042.45
736.34	30095.31
736.43	30305.84
736.51	30123.57
736.60	29241.72
736.69	28299.45
736.78	27632.83
736.86	27378.37
736.95	27051.52
737.04	27763.60
737.13	29274.69
737.21	31138.96
737.30	31545.37
737.39	31342.52
737.47	29692.88
737.56	27940.74
737.65	25549.64
737.74	23446.78
737.82	21805.95
737.91	21411.51
738.00	21599.62
738.08	22217.49
738.17	22733.58
738.26	23802.00
738.35	24745.91
738.43	26369.65
738.52	27228.67
738.61	27376.32
738.69	26062.14
738.78	24281.13
738.87	21377.11
738.96	18865.38
739.04	16029.04
739.13	14240.45
739.22	13453.62
739.30	13385.73
739.39	13384.81
739.48	13674.29
739.56	13883.38
739.65	14438.69
739.74	14650.14
739.82	14992.97
739.91	14911.77
740.00	15155.38
740.09	15259.82
740.17	15435.54
740.26	15563.64
740.35	15797.11
740.43	15460.01
740.52	15392.02
740.61	14842.14
740.69	14485.79
740.78	13803.92
740.87	13512.50
740.95	13287.43
741.04	13523.04
741.13	13600.97
741.21	13826.55
741.30	13801.98
741.39	14056.44
741.47	14238.71
741.56	15219.27
741.65	15857.93
741.73	16837.68
741.82	17686.26
741.91	19171.85
741.99	20293.63
742.08	21285.67
742.17	21336.35
742.25	21717.28
742.34	21649.90
742.43	21750.55
742.51	21164.73
742.60	21029.16
742.69	20278.68
742.77	20362.13
742.86	20487.57
742.95	20453.78
743.03	20235.67
743.12	20538.05
743.21	20821.70
743.29	21632.28
743.38	21718.20
743.47	23209.02
743.55	24491.45
743.64	25610.67
743.73	26540.24
743.81	27021.51
743.90	28095.98
743.98	29073.99
744.07	30735.81
744.16	32980.49
744.24	35126.25
744.33	36447.29
744.42	36980.17
744.50	37409.22
744.59	36810.19
744.68	36305.06
744.76	35119.59
744.85	35033.88
744.93	35856.76
745.02	37925.92
745.11	39376.09
745.19	41353.10
745.28	41252.64
745.37	42402.37
745.45	43052.50
745.54	44056.72
745.62	44578.75
745.71	45069.03
745.80	45667.45
745.88	47723.61
745.97	47648.35
746.05	47823.24
746.14	47272.85
746.23	47911.31
746.31	48528.77
746.40	50043.45
746.49	51249.19
746.57	54057.26
746.66	55681.81
746.74	57046.27
746.83	56316.99
746.92	55036.91
747.00	52029.77
747.09	49826.16
747.17	46473.84
747.26	43700.07
747.35	41840.21
747.43	41860.17
747.52	42034.66
747.60	43118.45
747.69	43376.49
747.78	44651.45
747.86	45077.33
747.95	46906.47
748.03	47306.54
748.12	48584.37
748.20	47859.19
748.29	46868.79
748.38	45709.64
748.46	44630.46
748.55	43418.58
748.63	43774.72
748.72	44136.49
748.81	46936.47
748.89	49731.44
748.98	51855.29
749.06	51375.24
749.15	50392.42
749.23	46844.11
749.32	44490.59
749.41	40483.02
749.49	37615.66
749.58	35728.25
749.66	35940.01
749.75	36406.33
749.83	38262.40
749.92	39123.88
750.01	41329.14
750.09	42974.78
750.18	45551.13
750.26	47077.48
750.35	47931.79
750.43	45829.14
750.52	43495.78
750.60	39568.29
750.69	36563.51
750.78	32630.49
750.86	30820.19
750.95	30070.12
751.03	29830.61
751.12	28642.58
751.20	27465.10
751.29	25660.74
751.37	24022.98
751.46	22321.94
751.55	21102.47
751.63	19801.40
751.72	19455.70
751.80	18865.79
751.89	18728.88
751.97	18440.83
752.06	18462.34
752.14	18436.94
752.23	18208.69
752.31	17670.90
752.40	17087.02
752.48	16038.05
752.57	15191.63
752.65	14239.73
752.74	13547.72
752.83	13004.19
752.91	13087.03
753.00	12971.83
753.08	13080.68
753.17	13095.63
753.25	13046.38
753.34	13019.76
753.42	13390.23
753.51	13542.91
753.59	14113.17
753.68	14308.85
753.76	15018.47
753.85	15505.58
753.93	16293.74
754.02	16215.61
754.10	16218.48
754.19	16232.20
754.27	16761.91
754.36	16877.00
754.44	17405.28
754.53	17812.52
754.61	18505.65
754.70	19342.76
754.78	20694.52
754.87	20699.84
754.95	20795.79
755.04	20498.94
755.12	21522.00
755.21	21839.44
755.29	22475.23
755.38	22832.39
755.46	24467.39
755.55	25494.75
755.63	26594.61
755.72	26781.70
755.80	27168.66
755.89	27456.20
755.97	27799.23
756.06	28249.37
756.14	29477.95
756.23	30992.83
756.31	32575.71
756.40	33125.89
756.48	34663.71
756.57	35337.91
756.65	36174.30
756.74	35867.00
756.82	37075.81
756.91	36887.91
756.99	39188.50
757.08	41623.02
757.16	43528.86
757.25	43801.03
757.33	45281.72
757.41	45733.91
757.50	46560.26
757.58	47115.16
757.67	47807.68
757.75	48252.50
757.84	49959.28
757.92	50926.63
758.01	51969.97
758.09	50949.26
758.18	50573.15
758.26	50859.36
758.35	51725.34
758.43	51787.19
758.51	53741.77
758.60	54794.33
758.68	56082.19
758.77	54976.29
758.85	54442.07
758.94	52123.67
759.02	49343.55
759.11	46836.12
759.19	45514.26
759.27	44228.65
759.36	44387.88
759.44	44920.25
759.53	46594.67
759.61	46471.38
759.70	47722.48
759.78	48637.72
759.87	49859.03
759.95	50493.28
760.03	52029.47
760.12	52622.25
760.20	55168.90
760.29	55063.02
760.37	55675.98
760.46	54692.95
760.54	54686.60
760.62	54619.74
760.71	55650.48
760.79	56619.07
760.88	58712.29
760.96	60628.78
761.05	63025.42
761.13	62853.18
761.21	61732.33
761.30	56133.90
761.38	51244.27
761.47	45304.35
761.55	39968.06
761.64	34838.82
761.72	32053.37
761.80	30710.93
761.89	31213.91
761.97	31777.92
762.06	33682.53
762.14	34687.98
762.22	36915.97
762.31	39048.93
762.39	42254.92
762.48	43626.96
762.56	43343.42
762.64	40492.34
762.73	36845.62
762.81	31534.32
762.90	26591.75
762.98	21006.43
763.06	16939.26
763.15	15126.71
763.23	14700.73
763.32	14488.05
763.40	14592.80
763.48	14689.36
763.57	15111.76
763.65	15409.84
763.74	16090.07
763.82	16452.66
763.90	16627.66
763.99	16685.62
764.07	16599.09
764.15	16316.47
764.24	16285.55
764.32	16153.87
764.41	16174.14
764.49	16137.79
764.57	15991.15
764.66	15359.46
764.74	14600.79
764.82	13440.51
764.91	12667.40
764.99	11418.55
765.08	10766.17
765.16	10082.35
765.24	10072.52
765.33	10040.06
765.41	10104.17
765.49	10008.73
765.58	9860.05
765.66	9695.90
765.74	9858.31
765.83	9924.66
765.91	10290.74
766.00	10507.31
766.08	11015.31
766.16	11362.34
766.25	11878.42
766.33	11813.20
766.41	11704.24
766.50	11563.86
766.58	11809.30
766.66	11864.09
766.75	12243.17
766.83	12480.83
766.91	12875.78
767.00	13313.13
767.08	14033.30
767.16	14713.43
767.25	15182.31
767.33	14617.68
767.41	14589.63
767.50	14762.58
767.58	15373.38
767.66	15481.72
767.75	16035.80
767.83	16513.80
767.91	17605.36
768.00	18331.06
768.08	18860.15
768.16	18784.99
768.25	19002.08
768.33	19013.34
768.41	19554.01
768.50	19557.59
768.58	20647.72
768.66	21451.65
768.75	22451.47
768.83	23037.70
768.91	23884.03
769.00	24354.65
769.08	24897.98
769.16	24840.12
769.25	25226.78
769.33	25541.24
769.41	26371.59
769.50	27711.07
769.58	29431.67
769.66	30211.74
769.74	31179.51
769.83	31381.43
769.91	32358.21
769.99	32437.06
770.08	33105.31
770.16	33388.75
770.24	34509.40
770.33	35036.44
770.41	36316.53
770.49	36472.89
770.58	36164.36
770.66	34847.42
770.74	35243.29
770.82	35344.36
770.91	35792.04
770.99	35882.67
771.07	37624.26
771.16	38881.61
771.24	39415.72
771.32	38572.47
771.40	37775.19
771.49	35744.63
771.57	33434.11
771.65	31199.06
771.74	29833.07
771.82	28192.44
771.90	27816.84
771.98	27804.96
772.07	29042.65
772.15	28817.48
772.23	29327.73
772.31	30000.69
772.40	31040.35
772.48	31108.24
772.56	31711.16
772.65	31951.28
772.73	32871.54
772.81	33402.68
772.89	34288.42
772.98	33765.88
773.06	33017.15
773.14	31887.59
773.22	31355.02
773.31	30282.39
773.39	29871.77
773.47	29775.62
773.55	31998.08
773.64	34194.32
773.72	35880.82
773.80	37457.55
773.88	36501.46
773.97	34573.19
774.05	32302.51
774.13	29071.74
774.21	26147.75
774.30	23454.87
774.38	21490.87
774.46	21102.37
774.54	21517.39
774.63	22148.47
774.71	22941.65
774.79	23873.68
774.87	25849.67
774.96	27364.34
775.04	29866.65
775.12	31429.05
775.20	31744.33
775.29	29905.57
775.37	27418.41
775.45	23911.78
775.53	19884.45
775.61	15560.26
775.70	12061.10
775.78	10033.10
775.86	9115.00
775.94	8763.57
776.03	8762.23
776.11	8977.17
776.19	9333.11
776.27	9493.46
776.36	9982.72
776.44	10482.12
776.52	11021.45
776.60	11304.48
776.68	11660.93
776.77	11666.46
776.85	11639.94
776.93	11138.70
777.01	10757.57
777.09	10226.94
777.18	9825.23
777.26	9479.33
777.34	9287.95
777.42	8869.24
777.50	8463.13
777.59	7613.84
777.67	6938.72
777.75	6137.25
777.83	5451.08
777.91	4831.98
778.00	4646.23
778.08	4573.52
778.16	4633.02
778.24	4587.25
778.32	4748.22
778.41	4853.89
778.49	5238.60
778.57	5493.88
778.65	5878.90
778.73	6038.54
778.82	6181.79
778.90	6234.53
778.98	6203.71
779.06	5932.97
779.14	5619.42
779.22	5209.42
779.31	5076.61
779.39	4742.99
779.47	4606.91
779.55	4531.54
779.63	4532.36
779.72	4422.38
779.80	4562.06
779.88	4581.72
779.96	4689.95
780.04	4802.28
780.12	4888.81
780.21	4957.93
780.29	5076.30
780.37	5202.46
780.45	5355.95
780.53	5471.05
780.61	5506.68
780.70	5542.52
780.78	5648.50
780.86	5760.94
780.94	5966.55
781.02	5871.42
781.10	5885.15
781.18	5905.52
781.27	5838.96
781.35	5824.53
781.43	5746.19
781.51	5693.97
781.59	5612.77
781.67	5620.34
781.75	5702.06
781.84	5705.33
781.92	5750.08
782.00	5742.30
782.08	5971.67
782.16	6137.25
782.24	6804.79
782.32	7535.60
782.41	8677.55
782.49	9939.41
782.57	11871.26
782.65	13905.91
782.73	15857.32
782.81	16765.39
782.89	16582.20
782.98	15433.19
783.06	14314.48
783.14	12475.82
783.22	10171.85
783.30	8120.30
783.38	7034.36
783.46	6257.88
783.54	6010.89
783.63	5748.96
783.71	5646.15
783.79	5462.44
783.87	5536.27
783.95	5588.60
784.03	5651.37
784.11	5705.03
784.19	5818.59
784.27	5868.86
784.36	5946.28
784.44	5875.11
784.52	5920.88
784.60	5856.88
784.68	5882.07
784.76	5788.89
784.84	5718.34
784.92	5662.74
785.00	5912.08
785.08	6002.60
785.17	6116.57
785.25	6057.69
785.33	6220.40
785.41	6150.05
785.49	6069.16
785.57	5908.19
785.65	5991.03
785.73	6058.61
785.81	6236.17
785.89	6328.84
785.98	6566.71
786.06	6576.44
786.14	6675.56
786.22	6599.27
786.30	6543.57
786.38	6504.55
786.46	6517.05
786.54	6425.09
786.62	6593.23
786.70	6709.25
786.78	6808.37
786.86	6641.67
786.94	6740.89
787.03	6568.96
787.11	6435.74
787.19	6253.78
787.27	6137.97
787.35	6091.99
787.43	6278.15
787.51	6308.46
787.59	6679.65
787.67	6914.86
787.75	7335.41
787.83	7438.12
787.91	7701.59
787.99	7863.59
788.07	8072.89
788.15	8274.10
788.23	8477.05
788.32	8665.16
788.40	8744.83
788.48	8741.55
788.56	8433.13
788.64	7816.58
788.72	7137.68
788.80	6360.89
788.88	5663.86
788.96	5056.13
789.04	4701.21
789.12	4405.18
789.20	4333.09
789.28	4288.65
789.36	4417.67
789.44	4421.46
789.52	4409.48
789.60	4229.98
789.68	4152.77
789.76	3961.18
789.84	3804.00
789.92	3463.01
790.00	3283.61
790.08	3135.64
790.16	3036.93
790.25	2883.74
790.33	2816.37
790.41	2689.09
790.49	2671.47
790.57	2556.99
790.65	2550.95
790.73	2465.24
790.81	2513.06
790.89	2576.65
790.97	2676.80
791.05	2729.33
791.13	2822.00
791.21	2827.12
791.29	2855.07
791.37	2792.92
791.45	2644.34
791.53	2413.94
791.61	2290.86
791.69	2149.24
791.77	2086.57
791.85	1995.34
791.93	1940.45
792.01	1910.24
792.09	1944.03
792.17	1915.16
792.25	1942.70
792.33	1929.08
792.41	2017.66
792.49	2111.97
792.57	2189.28
792.65	2163.37
792.73	2152.93
792.81	2060.77
792.89	2010.49
792.97	1938.10
793.05	1968.00
793.13	1982.74
793.21	2045.10
793.29	2067.83
793.37	2099.17
793.45	2115.55
793.53	2193.07
793.61	2214.67
793.69	2234.64
793.77	2252.25
793.85	2310.83
793.93	2345.23
794.01	2411.18
794.09	2367.04
794.16	2305.40
794.24	2339.19
794.32	2383.43
794.40	2422.03
794.48	2467.09
794.56	2451.32
794.64	2509.68
794.72	2507.64
794.80	2616.59
794.88	2667.99
794.96	2765.47
795.04	2758.31
795.12	2829.37
795.20	2871.25
795.28	2901.87
795.36	2876.99
795.44	2954.19
795.52	2955.22
795.60	3112.81
795.68	3104.62
795.76	3225.86
795.84	3277.67
795.92	3373.41
796.00	3371.47
796.07	3450.42
796.15	3470.59
796.23	3485.13
796.31	3502.13
796.39	3629.41
796.47	3638.83
796.55	3814.96
796.63	3912.03
796.71	4031.84
796.79	4029.48
796.87	4099.62
796.95	4095.94
797.03	4305.75
797.11	4404.36
797.19	4506.04
797.27	4664.35
797.34	4899.87
797.42	5075.17
797.50	5274.54
797.58	5320.11
797.66	5329.22
797.74	5419.23
797.82	5317.76
797.90	5407.97
797.98	5561.46
798.06	5552.45
798.14	5920.58
798.22	5952.52
798.29	6179.54
798.37	6247.43
798.45	6470.56
798.53	6502.20
798.61	6585.86
798.69	6702.49
798.77	6876.46
798.85	7106.66
798.93	7392.55
799.01	7636.16
799.09	8097.98
799.16	8837.91
799.24	9719.15
799.32	10465.12
799.40	11019.71
799.48	11391.72
799.56	11432.38
799.64	10733.40
799.72	9747.31
799.80	8500.20
799.88	7195.54
799.95	5881.66
800.03	4983.73
800.11	4312.71
800.19	4108.43
800.27	3853.46
800.35	3687.88
800.43	3553.84
800.51	3532.95
800.58	3513.70
800.66	3427.38
800.74	3298.66
800.82	3277.88
800.90	3183.47
800.98	3146.91
801.06	3034.07
801.14	3003.45
801.21	2953.58
801.29	3093.35
801.37	3133.19
801.45	3273.99
801.53	3240.09
801.61	3398.40
801.69	3526.40
801.77	3567.36
801.84	3532.75
801.92	3487.28
802.00	3358.67
802.08	3352.93
802.16	3174.45
802.24	3080.35
802.32	2957.78
802.39	2952.56
802.47	2981.74
802.55	3118.54
802.63	3213.67
802.71	3390.62
802.79	3548.00
802.87	3636.58
802.94	3584.66
803.02	3559.98
803.10	3435.06
803.18	3312.79
803.26	3100.32
803.34	2973.34
803.41	2880.26
803.49	2850.67
803.57	2754.52
803.65	2819.03
803.73	2841.76
803.81	2879.65
803.88	2846.06
803.96	2925.93
804.04	2970.07
804.12	2948.97
804.20	2968.12
804.28	3017.68
804.35	3024.24
804.43	3118.54
804.51	3111.99
804.59	3131.14
804.67	3017.68
804.75	2978.57
804.82	2770.18
804.90	2609.62
804.98	2422.24
805.06	2306.83
805.14	2305.19
805.21	2433.29
805.29	2486.75
805.37	2607.78
805.45	2693.49
805.53	2766.81
805.60	2841.97
805.68	2808.28
805.76	2711.41
805.84	2730.04
805.92	2657.55
805.99	2771.11
806.07	2651.40
806.15	2683.76
806.23	2663.59
806.31	2685.91
806.38	2601.43
806.46	2625.50
806.54	2546.85
806.62	2557.50
806.70	2486.75
806.77	2392.85
806.85	2303.25
806.93	2323.73
807.01	2309.80
807.09	2316.97
807.16	2261.88
807.24	2322.50
807.32	2324.65
807.40	2336.22
807.48	2262.29
807.55	2300.59
807.63	2332.84
807.71	2424.79
807.79	2420.29
807.86	2502.72
807.94	2539.79
808.02	2553.20
808.10	2503.95
808.17	2547.67
808.25	2515.83
808.33	2552.69
808.41	2594.98
808.49	2613.31
808.56	2695.64
808.64	2756.98
808.72	2814.22
808.80	3004.78
808.87	3134.01
808.95	3308.19
809.03	3351.71
809.11	3549.33
809.18	3559.57
809.26	3620.50
809.34	3464.65
809.42	3465.78
809.49	3370.55
809.57	3459.74
809.65	3470.90
809.73	3392.26
809.80	3485.34
809.88	3546.98
809.96	3543.40
810.04	3560.50
810.11	3707.44
810.19	3727.82
810.27	3804.00
810.35	3945.51
810.42	4082.73
810.50	4298.79
810.58	4348.66
810.66	4499.69
810.73	4501.23
810.81	4537.27
810.89	4626.67
810.96	4749.75
811.04	4657.39
811.12	4833.92
811.20	5066.16
811.27	5397.42
811.35	5699.91
811.43	6517.25
811.50	7107.37
811.58	7919.50
811.66	7951.34
811.74	8135.04
811.81	7591.21
811.89	7054.13
811.97	6105.61
812.05	5090.23
812.12	4117.34
812.20	3321.50
812.28	2592.73
812.35	2174.43
812.43	1939.22
812.51	1836.72
812.58	1750.50
812.66	1791.97
812.74	1790.33
812.82	1798.42
812.89	1829.04
812.97	1841.33
813.05	1807.33
813.12	1779.38
813.20	1731.46
813.28	1740.67
813.35	1707.90
813.43	1673.09
813.51	1694.69
813.59	1709.54
813.66	1729.00
813.74	1786.55
813.82	1694.39
813.89	1712.82
813.97	1648.51
814.05	1636.12
814.12	1603.97
814.20	1665.00
814.28	1682.41
814.35	1752.24
814.43	1798.12
814.51	1871.43
814.58	1869.18
814.66	1870.41
814.74	1827.10
814.81	1815.42
814.89	1800.88
814.97	1762.28
815.04	1734.42
815.12	1788.59
815.20	1705.65
815.27	1700.12
815.35	1714.46
815.43	1728.49
815.50	1714.35
815.58	1711.69
815.66	1773.03
815.73	1826.79
815.81	1864.27
815.89	1872.66
815.96	1820.03
816.04	1832.42
816.12	1782.55
816.19	1752.55
816.27	1726.23
816.35	1771.80
816.42	1848.50
816.50	1956.12
816.58	2054.52
816.65	2080.94
816.73	2102.96
816.80	2137.57
816.88	2047.35
816.96	1992.67
817.03	1905.84
817.11	1841.74
817.19	1870.10
817.26	1903.38
817.34	1907.89
817.42	1952.94
817.49	1942.81
817.57	2002.40
817.64	2031.07
817.72	1986.73
817.80	1991.44
817.87	1985.81
817.95	2005.47
818.03	2054.11
818.10	2159.69
818.18	2423.16
818.25	2874.22
818.33	3339.73
818.41	3648.05
818.48	4032.14
818.56	4378.05
818.63	4723.54
818.71	4671.83
818.79	4359.51
818.86	3874.24
818.94	3545.85
819.02	3104.11
819.09	2629.28
819.17	2147.50
819.24	1892.53
819.32	1697.66
819.40	1624.76
819.47	1539.56
819.55	1535.16
819.62	1522.05
819.70	1562.91
819.78	1597.31
819.85	1729.51
819.93	1844.91
820.00	1958.17
820.08	1969.33
820.16	2013.46
820.23	1970.56
820.31	1873.07
820.38	1734.12
820.46	1573.56
820.53	1448.63
820.61	1401.12
820.69	1352.38
820.76	1408.90
820.84	1496.45
820.91	1590.86
820.99	1649.95
821.07	1742.21
821.14	1840.30
821.22	2014.89
821.29	2255.43
821.37	2903.10
821.44	3661.26
821.52	4167.92
821.60	4358.90
821.67	4526.42
821.75	4453.92
821.82	4249.64
821.90	3644.67
821.97	2962.49
822.05	2786.67
822.12	2883.23
822.20	2864.90
822.28	2811.04
822.35	2621.09
822.43	2544.60
822.50	2364.89
822.58	2042.85
822.65	1674.93
822.73	1491.33
822.80	1315.62
822.88	1286.84
822.96	1271.69
823.03	1251.10
823.11	1241.89
823.18	1231.55
823.26	1245.78
823.33	1272.91
823.41	1280.19
823.48	1290.02
823.56	1276.29
823.63	1331.28
823.71	1307.63
823.79	1358.83
823.86	1410.03
823.94	1611.55
824.01	1906.86
824.09	2209.14
824.16	2312.26
824.24	2447.83
824.31	2495.45
824.39	2505.79
824.46	2385.37
824.54	2101.01
824.61	1862.83
824.69	1737.29
824.76	1646.98
824.84	1633.87
824.91	1595.78
824.99	1650.36
825.06	1641.86
825.14	1599.77
825.21	1550.31
825.29	1619.43
825.36	1581.75
825.44	1573.45
825.51	1539.25
825.59	1554.92
825.67	1528.19
825.74	1598.34
825.82	1609.19
825.89	1622.30
825.97	1748.76
826.04	1709.34
826.12	1749.48
826.19	1812.35
826.27	1801.19
826.34	1845.32
826.41	1847.37
826.49	1816.75
826.56	1778.05
826.64	1787.57
826.71	1721.73
826.79	1706.78
826.86	1656.29
826.94	1654.45
827.01	1663.46
827.09	1713.64
827.16	1709.34
827.24	1788.59
827.31	1848.09
827.39	1928.16
827.46	1954.07
827.54	2077.66
827.61	2128.45
827.69	2324.55
827.76	2428.89
827.84	2689.49
827.91	2765.47
827.99	2970.27
828.06	3100.11
828.14	3143.53
828.21	3082.60
828.28	2922.96
828.36	2652.94
828.43	2454.70
828.51	2190.10
828.58	1953.86
828.66	1777.12
828.73	1658.85
828.81	1526.76
828.88	1522.66
828.96	1475.97
829.03	1472.08
829.11	1469.52
829.18	1537.10
829.25	1579.09
829.33	1601.72
829.40	1577.76
829.48	1607.55
829.55	1622.50
829.63	1649.64
829.70	1625.68
829.78	1660.29
829.85	1652.40
829.92	1679.23
830.00	1652.71
830.07	1701.96
830.15	1732.99
830.22	1745.69
830.30	1779.38
830.37	1748.76
830.44	1764.84
830.52	1748.76
830.59	1721.11
830.67	1715.38
830.74	1664.59
830.82	1682.20
830.89	1652.92
830.96	1708.83
831.04	1699.30
831.11	1766.99
831.19	1766.27
831.26	1803.24
831.34	1771.19
831.41	1788.49
831.48	1794.74
831.56	1762.17
831.63	1720.70
831.71	1711.39
831.78	1703.50
831.85	1693.67
831.93	1724.08
832.00	1709.13
832.08	1746.51
832.15	1745.07
832.22	1715.99
832.30	1720.19
832.37	1679.44
832.45	1670.63
832.52	1663.16
832.59	1697.97
832.67	1712.82
832.74	1722.24
832.82	1709.95
832.89	1813.07
832.96	1863.75
833.04	1935.43
833.11	1988.27
833.19	2017.56
833.26	2030.15
833.33	2064.66
833.41	2047.76
833.48	1991.55
833.56	1922.53
833.63	1893.96
833.70	1803.54
833.78	1822.49
833.85	1781.32
833.92	1828.43
834.00	1738.73
834.07	1733.09
834.15	1631.10
834.22	1639.09
834.29	1593.42
834.37	1566.90
834.44	1578.27
834.51	1596.49
834.59	1598.64
834.66	1675.96
834.73	1713.43
834.81	1753.98
834.88	1784.80
834.96	1852.49
835.03	1864.47
835.10	1881.78
835.18	1856.89
835.25	1866.31
835.32	1810.92
835.40	1768.01
835.47	1755.31
835.54	1733.61
835.62	1792.08
835.69	1809.28
835.76	1823.72
835.84	1836.31
835.91	1890.58
835.98	1927.96
836.06	1935.13
836.13	1943.83
836.21	1970.76
836.28	1995.54
836.35	2013.97
836.43	2001.38
836.50	2051.96
836.57	2026.87
836.65	1994.93
836.72	1975.88
836.79	1969.33
836.87	2032.20
836.94	2009.98
837.01	2067.83
837.08	2082.78
837.16	2122.72
837.23	2197.37
837.30	2179.24
837.38	2201.77
837.45	2194.60
837.52	2153.75
837.60	2204.23
837.67	2181.19
837.74	2241.81
837.82	2272.12
837.89	2252.87
837.96	2309.08
838.04	2361.72
838.11	2350.76
838.18	2363.46
838.26	2268.84
838.33	2215.08
838.40	2171.15
838.47	2197.47
838.55	2208.63
838.62	2257.17
838.69	2298.74
838.77	2344.31
838.84	2432.37
838.91	2459.92
838.99	2475.69
839.06	2479.07
839.13	2466.16
839.20	2588.22
839.28	2616.08
839.35	2758.82
839.42	2900.74
839.50	3132.78
839.57	3286.07
839.64	3635.86
839.71	3836.15
839.79	4054.36
839.86	4221.79
839.93	4332.99
840.01	4253.53
840.08	4288.65
840.15	4081.81
840.22	3857.76
840.30	3510.94
840.37	3262.62
840.44	2838.08
840.51	2501.80
840.59	2152.31
840.66	1949.56
840.73	1775.49
840.81	1762.58
840.88	1707.90
840.95	1718.35
841.02	1658.75
841.10	1666.94
841.17	1634.79
841.24	1637.56
841.31	1566.49
841.39	1569.77
841.46	1610.22
841.53	1771.90
841.60	1857.41
841.68	1891.91
841.75	1949.15
841.82	1975.68
841.89	1952.12
841.97	1906.15
842.04	1868.77
842.11	1824.84
842.18	1853.72
842.26	1914.24
842.33	1899.59
842.40	1963.49
842.47	1951.51
842.55	1938.81
842.62	1883.82
842.69	1910.55
842.76	1957.35
842.84	2012.64
842.91	2134.29
842.98	2279.80
843.05	2376.87
843.12	2450.50
843.20	2431.96
843.27	2411.38
843.34	2399.91
843.41	2360.80
843.49	2338.68
843.56	2311.24
843.63	2262.49
843.70	2308.57
843.77	2368.89
843.85	2453.36
843.92	2436.78
843.99	2486.95
844.06	2572.56
844.14	2667.17
844.21	2744.69
844.28	2813.81
844.35	2860.19
844.42	2909.75
844.50	2875.25
844.57	2950.51
844.64	2927.98
844.71	2994.44
844.78	2987.99
844.86	3031.51
844.93	3096.02
845.00	3094.48
845.07	3096.12
845.14	3169.74
845.22	3061.51
845.29	3188.69
845.36	3213.98
845.43	3222.99
845.50	3235.18
845.57	3321.40
845.65	3348.94
845.72	3502.23
845.79	3648.46
845.86	3790.28
845.93	3911.42
846.01	4026.20
846.08	4050.06
846.15	4052.01
846.22	4022.42
846.29	4010.03
846.36	3828.88
846.44	3881.72
846.51	3946.03
846.58	4089.28
846.65	4220.86
846.72	4541.06
846.80	4740.74
846.87	5072.00
846.94	5395.99
847.01	5649.83
847.08	5870.09
847.15	6031.06
847.22	6007.00
847.30	6065.37
847.37	5961.84
847.44	5834.97
847.51	5656.18
847.58	5563.31
847.65	5324.21
847.73	5319.09
847.80	5324.41
847.87	5295.64
847.94	5232.66
848.01	5274.75
848.08	5324.72
848.15	5388.62
848.23	5358.72
848.30	5386.16
848.37	5231.64
848.44	5263.07
848.51	5220.89
848.58	5248.23
848.65	5168.05
848.73	5180.85
848.80	5205.12
848.87	5418.31
848.94	5435.62
849.01	5645.23
849.08	5646.15
849.15	5675.54
849.23	5742.81
849.30	5748.96
849.37	5593.21
849.44	5537.50
849.51	5354.41
849.58	5232.05
849.65	5038.41
849.72	5023.46
849.79	4949.53
849.87	4948.10
849.94	4846.93
850.01	4936.53
850.08	5008.21
850.15	5149.52
850.22	5249.15
850.29	5333.22
850.36	5406.84
850.44	5538.94
850.51	5654.34
850.58	5688.44
850.65	5720.49
850.72	5728.27
850.79	5828.11
850.86	6113.70
850.93	6253.68
851.00	6419.36
851.07	6302.73
851.15	6249.48
851.22	6126.50
851.29	6075.30
851.36	5846.44
851.43	5551.22
851.50	5456.92
851.57	5615.94
851.64	5624.64
851.71	5613.69
851.78	5827.19
851.85	6151.38
851.92	6407.07
852.00	6789.22
852.07	6932.99
852.14	7105.12
852.21	7234.35
852.28	7268.75
852.35	6970.26
852.42	6837.76
852.49	6463.80
852.56	6205.96
852.63	6007.41
852.70	5951.50
852.77	5887.50
852.84	5893.64
852.92	5892.01
852.99	5880.23
853.06	5941.67
853.13	6082.16
853.20	6196.85
853.27	6414.14
853.34	6714.57
853.41	7079.73
853.48	7247.45
853.55	7446.62
853.62	7630.12
853.69	7812.59
853.76	7860.72
853.83	7706.61
853.90	7527.72
853.97	7319.95
854.04	6948.76
854.11	6533.23
854.18	6028.40
854.26	5673.28
854.33	5082.75
854.40	4697.53
854.47	4317.53
854.54	4107.30
854.61	3827.24
854.68	3729.35
854.75	3631.56
854.82	3705.39
854.89	3715.53
854.96	3956.98
855.03	4127.07
855.10	4542.80
855.17	5001.45
855.24	5570.27
855.31	6145.54
855.38	6360.07
855.45	6315.42
855.52	6280.20
855.59	6165.72
855.66	5999.42
855.73	5666.01
855.80	5160.37
855.87	4751.39
855.94	4501.84
856.01	4364.73
856.08	4164.65
856.15	3887.56
856.22	3601.56
856.29	3311.26
856.36	3158.99
856.43	3040.93
856.50	2974.98
856.57	2874.53
856.64	2896.75
856.71	2873.81
856.78	2942.42
856.85	2911.39
856.92	2814.73
856.99	2635.22
857.06	2486.85
857.13	2375.75
857.20	2314.72
857.27	2302.63
857.34	2311.54
857.41	2395.30
857.48	2556.07
857.55	2671.78
857.62	2772.03
857.69	2763.73
857.76	2789.23
857.83	2693.69
857.90	2588.12
857.97	2503.74
858.04	2443.02
858.11	2417.52
858.18	2605.22
858.25	2767.73
858.32	2878.42
858.39	2823.74
858.46	2923.27
858.53	2890.61
858.60	2865.52
858.67	2667.48
858.74	2622.42
858.81	2578.60
858.88	2815.04
858.95	3113.94
859.02	3414.89
859.09	3658.70
859.16	3928.21
859.23	4013.51
859.29	4161.37
859.36	3978.59
859.43	3849.57
859.50	3668.83
859.57	3677.84
859.64	3660.03
859.71	3698.94
859.78	3729.76
859.85	3763.45
859.92	3795.30
859.99	3692.59
860.06	3617.12
860.13	3519.64
860.20	3483.80
860.27	3618.66
860.34	3765.80
860.41	3978.79
860.48	4214.62
860.54	4469.18
860.61	4482.80
860.68	4577.82
860.75	4496.21
860.82	4460.37
860.89	4424.33
860.96	4416.04
861.03	4422.38
861.10	4510.55
861.17	4497.24
861.24	4597.79
861.31	4570.35
861.38	4737.57
861.45	4672.75
861.51	4771.26
861.58	4840.68
861.65	5054.69
861.72	5188.94
861.79	5363.63
861.86	5443.60
861.93	5519.28
862.00	5534.94
862.07	5609.28
862.14	5602.01
862.21	5808.14
862.27	5831.18
862.34	5957.23
862.41	6065.06
862.48	6465.03
862.55	6809.29
862.62	7193.08
862.69	7356.71
862.76	7612.61
862.83	7830.61
862.90	8053.64
862.96	7958.20
863.03	7989.02
863.10	7781.36
863.17	7764.46
863.24	7684.80
863.31	7936.39
863.38	7989.95
863.45	8172.83
863.52	8305.43
863.58	8460.16
863.65	8511.26
863.72	8553.65
863.79	8384.59
863.86	8433.43
863.93	8373.43
864.00	8249.42
864.07	8240.62
864.13	8365.95
864.20	8567.37
864.27	9035.33
864.34	9199.89
864.41	9592.58
864.48	9790.72
864.55	10212.81
864.62	10301.79
864.68	10429.69
864.75	10299.44
864.82	10520.72
864.89	10459.69
864.96	10464.61
865.03	10597.42
865.10	10969.94
865.16	11296.29
865.23	11534.06
865.30	11772.95
865.37	12063.56
865.44	12426.46
865.51	12776.46
865.58	12878.04
865.64	12941.52
865.71	13046.07
865.78	13360.03
865.85	13469.08
865.92	13509.43
865.99	13394.43
866.05	13251.48
866.12	13058.26
866.19	13246.16
866.26	13140.69
866.33	13214.42
866.40	12862.06
866.46	12890.43
866.53	12921.66
866.60	13457.00
866.67	13630.87
866.74	13822.97
866.81	13716.07
866.87	13955.88
866.94	13939.50
867.01	14214.75
867.08	13823.69
867.15	13889.22
867.21	13371.39
867.28	12973.37
867.35	12504.18
867.42	12222.18
867.49	12086.70
867.56	12344.75
867.62	12716.86
867.69	13406.72
867.76	13655.04
867.83	14227.85
867.90	14877.37
867.96	16072.66
868.03	16600.94
868.10	17137.20
868.17	16555.47
868.24	16708.05
868.30	16638.72
868.37	17218.71
868.44	16842.90
868.51	16382.52
868.58	16046.45
868.64	16083.21
868.71	16202.50
868.78	16269.27
868.85	15868.58
868.92	15457.35
868.98	14871.63
869.05	14462.04
869.12	13880.31
869.19	13182.88
869.25	12188.28
869.32	11610.75
869.39	11142.90
869.46	11050.53
869.53	10903.90
869.59	10915.88
869.66	10860.07
869.73	11242.53
869.80	11820.98
869.86	12593.16
869.93	13189.43
870.00	13723.03
870.07	13985.48
870.14	14328.20
870.20	14131.91
870.27	13829.22
870.34	13229.37
870.41	12689.32
870.47	11639.63
870.54	11166.24
870.61	10603.05
870.68	10483.76
870.74	10295.55
870.81	10157.52
870.88	9922.31
870.95	9745.98
871.01	9798.10
871.08	9644.81
871.15	9564.53
871.22	9571.39
871.28	9401.61
871.35	9466.22
871.42	9553.36
871.49	9926.71
871.55	10119.42
871.62	10511.10
871.69	10807.44
871.76	11200.96
871.82	11421.83
871.89	11772.13
871.96	11639.94
872.02	11453.57
872.09	10810.61
872.16	10550.42
872.23	9724.37
872.29	9139.06
872.36	8232.42
872.43	7668.41
872.50	7037.54
872.56	6691.43
872.63	6193.57
872.70	5867.02
872.76	5488.15
872.83	5221.40
872.90	4893.21
872.97	4723.95
873.03	4767.36
873.10	4744.53
873.17	4712.89
873.23	4784.46
873.30	4705.92
873.37	4824.71
873.44	4683.70
873.50	4701.32
873.57	4437.95
873.64	4445.42
873.70	4360.13
873.77	4426.58
873.84	4416.65
873.91	4464.26
873.97	4491.71
874.04	4689.95
874.11	4826.24
874.17	5014.35
874.24	4998.27
874.31	5053.67
874.37	4856.45
874.44	4776.07
874.51	4595.03
874.57	4468.16
874.64	4236.02
874.71	4094.91
874.77	3964.05
874.84	3876.09
874.91	3752.70
874.98	3701.91
875.04	3600.33
875.11	3453.90
875.18	3197.90
875.24	3039.29
875.31	2842.58
875.38	2796.30
875.44	2766.19
875.51	2802.34
875.58	2787.80
875.64	2897.26
875.71	2953.68
875.78	3076.66
875.84	3142.30
875.91	3165.55
875.98	3077.79
876.04	2981.84
876.11	2915.90
876.18	2894.80
876.24	2824.46
876.31	2925.22
876.37	2960.44
876.44	3143.53
876.51	3237.94
876.57	3305.83
876.64	3275.73
876.71	3302.55
876.77	3205.99
876.84	3134.21
876.91	2982.56
876.97	2919.79
877.04	2852.82
877.11	2968.74
877.17	3108.71
877.24	3310.54
877.31	3474.38
877.37	3561.11
877.44	3653.47
877.50	3714.81
877.57	3684.81
877.64	3679.07
877.70	3535.61
877.77	3440.49
877.84	3415.70
877.90	3544.32
877.97	3637.70
878.03	3771.64
878.10	3792.33
878.17	3869.33
878.23	3832.98
878.30	3863.39
878.37	3816.80
878.43	3758.53
878.50	3680.51
878.56	3691.26
878.63	3756.90
878.70	3923.40
878.76	4023.03
878.83	4250.05
878.89	4427.81
878.96	4547.41
879.03	4578.85
879.09	4577.62
879.16	4536.56
879.22	4522.32
879.29	4487.10
879.36	4645.71
879.42	4606.19
879.49	4660.36
879.55	4789.69
879.62	4838.84
879.69	4849.59
879.75	4912.05
879.82	4913.49
879.88	4953.22
879.95	4884.20
880.02	4964.79
880.08	5025.61
880.15	5256.42
880.21	5310.49
880.28	5455.58
880.34	5556.96
880.41	5669.39
880.48	5624.75
880.54	5716.70
880.61	5750.39
880.67	5841.11
880.74	5922.42
880.80	6049.80
880.87	6022.46
880.94	6104.69
881.00	6198.38
881.07	6322.49
881.13	6373.18
881.20	6357.20
881.26	6400.00
881.33	6488.37
881.40	6587.80
881.46	6633.78
881.53	6618.93
881.59	6692.15
881.66	6655.18
881.72	6880.56
881.79	6931.86
881.85	7207.62
881.92	7240.18
881.99	7528.54
882.05	7670.56
882.12	7976.02
882.18	7976.63
882.25	8125.21
882.31	8112.62
882.38	8189.01
882.44	8068.69
882.51	8213.38
882.57	8187.98
882.64	8287.82
882.71	8270.31
882.77	8439.58
882.84	8541.26
882.90	8881.94
882.97	9030.93
883.03	9335.26
883.10	9490.59
883.16	9668.36
883.23	9797.58
883.29	10133.86
883.36	9966.44
883.42	10042.62
883.49	9891.69
883.55	10120.55
883.62	10080.31
883.68	10143.49
883.75	10006.38
883.81	10236.36
883.88	10332.31
883.94	10635.31
884.01	10689.99
884.07	10867.03
884.14	10775.69
884.20	11099.68
884.27	11248.16
884.34	11478.35
884.40	11478.35
884.47	11621.81
884.53	11651.51
884.60	11870.54
884.66	11787.08
884.73	11998.33
884.79	11797.43
884.86	11725.54
884.92	11629.70
884.98	11617.51
885.05	11532.21
885.11	11574.71
885.18	11516.45
885.24	11576.96
885.31	11384.04
885.37	11580.85
885.44	11618.33
885.50	11941.60
885.57	12083.32
885.63	12072.47
885.70	12214.39
885.76	12348.23
885.83	12388.88
885.89	12571.35
885.96	12295.80
886.02	12215.21
886.09	11913.55
886.15	11671.99
886.22	11320.35
886.28	11096.00
886.35	10647.18
886.41	10398.66
886.47	10058.50
886.54	9865.27
886.60	9474.11
886.67	9332.49
886.73	9121.35
886.80	9108.34
886.86	8978.50
886.93	9088.68
886.99	9028.06
887.06	9129.03
887.12	9051.51
887.19	9178.18
887.25	9060.93
887.31	9242.99
887.38	9217.91
887.44	9393.62
887.51	9420.66
887.57	9541.38
887.64	9595.45
887.70	9860.66
887.77	9908.07
887.83	10338.86
887.89	10309.27
887.96	10471.78
888.02	10342.14
888.09	10243.63
888.15	10027.26
888.22	9941.05
888.28	9653.00
888.34	9462.95
888.41	9087.76
888.47	8972.36
888.54	8747.69
888.60	8723.94
888.67	8602.80
888.73	8694.04
888.79	8662.81
888.86	8916.14
888.92	8922.69
888.99	9422.19
889.05	9557.36
889.11	9890.15
889.18	9957.43
889.24	10189.98
889.31	10055.73
889.37	10022.14
889.44	9733.07
889.50	9415.33
889.56	8934.78
>>>>>End Processed Spectral Data<<<<<
