SpectraSuite Data File
++++++++++++++++++++++++++++++++++++
Date: Wed Jul 12 17:11:33 CDT 2017
User: Owner
Dark Spectrum Present: Yes
Reference Spectrum Present: Yes
Number of Sampled Component Spectra: 1
Spectrometers: USB4H04489
Integration Time (usec): 33000 (USB4H04489)
Spectra Averaged: 20 (USB4H04489)
Boxcar Smoothing: 0 (USB4H04489)
Correct for Electrical Dark: No (USB4H04489)
Strobe/Lamp Enabled: No (USB4H04489)
Correct for Detector Non-linearity: No (USB4H04489)
Correct for Stray Light: No (USB4H04489)
Number of Pixels in Processed Spectrum: 3648
>>>>>Begin Processed Spectral Data<<<<<
580.28	2.56
580.38	2.56
580.48	2.56
580.59	-7.07
580.69	-13.72
580.79	-7.88
580.90	14.54
581.00	11.88
581.11	10.65
581.21	4.81
581.31	9.01
581.42	11.16
581.52	6.04
581.62	3.89
581.73	3.79
581.83	1.95
581.93	56.42
582.04	142.54
582.14	8021.28
582.25	12525.07
582.35	12658.60
582.45	12898.11
582.56	13242.78
582.66	13548.85
582.76	14082.55
582.87	14320.01
582.97	14840.30
583.07	14737.08
583.18	15208.52
583.28	15254.40
583.38	15354.54
583.49	15176.88
583.59	15218.76
583.70	14657.01
583.80	14323.39
583.90	13965.30
584.01	14020.60
584.11	13945.54
584.21	14380.32
584.32	14322.98
584.42	14825.35
584.52	14795.45
584.63	14857.19
584.73	14729.40
584.83	15071.82
584.94	14855.35
585.04	14588.71
585.14	14135.49
585.25	13736.14
585.35	13065.84
585.45	12903.53
585.56	12539.10
585.66	13133.73
585.76	12822.64
585.87	12121.72
585.97	11353.73
586.07	10597.83
586.18	9884.11
586.28	9743.93
586.38	9877.25
586.49	10502.19
586.59	10797.51
586.69	11197.06
586.80	11412.82
586.90	12001.20
587.00	12144.15
587.11	12512.99
587.21	12686.24
587.31	12978.80
587.41	13298.38
587.52	13718.42
587.62	13919.94
587.72	14298.00
587.83	14707.69
587.93	15233.41
588.03	15583.20
588.14	15672.49
588.24	15920.60
588.34	16267.32
588.45	16133.08
588.55	16478.67
588.65	16243.67
588.75	15868.99
588.86	15481.93
588.96	15260.54
589.06	14787.15
589.17	15112.37
589.27	15217.43
589.37	15507.01
589.48	15908.42
589.58	16102.26
589.68	16259.13
589.78	16436.08
589.89	16211.52
589.99	16487.38
590.09	16614.15
590.20	16135.74
590.30	15605.62
590.40	15206.48
590.50	14450.47
590.61	14227.96
590.71	14110.20
590.81	14947.20
590.92	14700.32
591.02	14209.32
591.12	13252.82
591.22	12153.26
591.33	11166.24
591.43	10903.69
591.53	10548.47
591.64	10858.02
591.74	11199.01
591.84	11769.47
591.94	11986.15
592.05	12140.15
592.15	12572.79
592.25	13046.38
592.35	13070.24
592.46	13518.03
592.56	13601.89
592.66	14288.88
592.76	14551.02
592.87	14853.10
592.97	14937.06
593.07	15515.72
593.18	15329.46
593.28	15506.09
593.38	15412.50
593.48	15496.88
593.59	15488.17
593.69	15919.58
593.79	15803.15
593.89	15713.45
594.00	15229.62
594.10	15079.50
594.20	14618.30
594.30	14528.29
594.41	14502.28
594.51	14752.85
594.61	14843.98
594.71	15306.83
594.82	15764.44
594.92	15926.13
595.02	15974.16
595.12	16097.14
595.23	16172.30
595.33	16230.66
595.43	16130.11
595.53	15831.41
595.64	15261.26
595.74	14820.43
595.84	14050.91
595.94	13906.32
596.04	13864.65
596.15	13621.35
596.25	12573.20
596.35	11838.28
596.45	10508.23
596.56	9419.94
596.66	8748.10
596.76	8761.62
596.86	8868.32
596.97	9275.05
597.07	9508.51
597.17	9878.58
597.27	10048.97
597.37	10614.42
597.48	10697.36
597.58	11089.96
597.68	11016.43
597.78	11482.76
597.89	11618.64
597.99	12036.53
598.09	12264.06
598.19	12649.89
598.29	12906.20
598.40	13431.81
598.50	13900.49
598.60	14061.56
598.70	14305.68
598.80	14649.43
598.91	14773.02
599.01	14909.11
599.11	15026.25
599.21	15385.26
599.31	14714.04
599.42	14398.04
599.52	14080.81
599.62	13791.23
599.72	13300.23
599.82	13386.45
599.93	13704.90
600.03	14020.70
600.13	14231.33
600.23	14555.94
600.33	14736.98
600.44	14838.66
600.54	14905.83
600.64	14996.66
600.74	14781.83
600.84	14907.47
600.95	14294.11
601.05	13790.41
601.15	13069.93
601.25	12639.96
601.35	12120.08
601.46	12467.93
601.56	12303.79
601.66	12266.10
601.76	10992.47
601.86	10256.94
601.96	8921.46
602.07	8023.84
602.17	7588.85
602.27	7721.56
602.37	7926.25
602.47	8176.92
602.57	8485.86
602.68	8659.94
602.78	8781.18
602.88	9086.84
602.98	9328.60
603.08	9390.65
603.18	9438.27
603.29	9723.65
603.39	9777.21
603.49	9959.17
603.59	9930.60
603.69	10332.00
603.79	10445.97
603.90	10789.01
604.00	10854.23
604.10	11349.33
604.20	11545.94
604.30	11663.80
604.40	11590.48
604.51	11682.64
604.61	11720.53
604.71	12026.39
604.81	11734.14
604.91	11620.28
605.01	11131.12
605.11	10886.80
605.22	10208.61
605.32	10437.47
605.42	10394.26
605.52	10679.85
605.62	10711.90
605.72	10964.82
605.83	10772.93
605.93	11279.70
606.03	11205.05
606.13	11327.11
606.23	11256.87
606.33	11405.14
606.43	11139.11
606.53	10794.13
606.64	9983.03
606.74	9782.84
606.84	9053.05
606.94	8915.42
607.04	8953.31
607.14	9308.02
607.24	8997.34
607.35	8150.30
607.45	7260.77
607.55	6353.82
607.65	5266.45
607.75	4899.87
607.85	4975.44
607.95	5044.76
608.05	5128.32
608.16	5354.21
608.26	5280.18
608.36	5452.20
608.46	5471.76
608.56	5608.06
608.66	5576.72
608.76	5687.00
608.86	5666.22
608.96	5734.52
609.07	5684.03
609.17	5779.47
609.27	5763.50
609.37	5871.22
609.47	5987.95
609.57	6177.90
609.67	6302.11
609.77	6444.14
609.87	6524.32
609.98	6670.44
610.08	6633.78
610.18	6755.94
610.28	6841.75
610.38	6958.59
610.48	6986.34
610.58	6858.85
610.68	6578.69
610.78	6528.31
610.88	6339.28
610.98	6201.76
611.09	6270.88
611.19	6571.11
611.29	6493.29
611.39	6671.77
611.49	6764.34
611.59	6905.24
611.69	6990.95
611.79	7177.31
611.89	7231.17
611.99	7259.74
612.09	7437.71
612.20	7350.98
612.30	7158.98
612.40	6960.64
612.50	6734.75
612.60	6541.42
612.70	6387.92
612.80	6657.43
612.90	6827.11
613.00	6670.03
613.10	6345.63
613.20	5976.18
613.30	5420.67
613.40	4893.21
613.50	4763.06
613.61	4836.79
613.71	4926.49
613.81	5094.53
613.91	5282.22
614.01	5408.48
614.11	5474.53
614.21	5583.17
614.31	5693.15
614.41	5785.51
614.51	5933.58
614.61	6087.89
614.71	6180.36
614.81	6353.93
614.91	6381.27
615.01	6384.54
615.11	6443.32
615.22	6652.52
615.32	6743.86
615.42	6862.03
615.52	6966.37
615.62	7095.39
615.72	7026.68
615.82	7140.65
615.92	7148.54
616.02	7310.02
616.12	7081.16
616.22	7199.22
616.32	7052.69
616.42	7001.19
616.52	6820.76
616.62	6590.88
616.72	6641.67
616.82	6559.44
616.92	6568.35
617.02	6762.90
617.12	6713.86
617.22	6895.31
617.32	6649.96
617.42	6572.75
617.52	6654.36
617.62	6840.32
617.72	6661.33
617.83	6790.25
617.93	6677.61
618.03	6610.84
618.13	6337.44
618.23	6127.52
618.33	6021.74
618.43	6025.94
618.53	5910.85
618.63	5956.52
618.73	5935.94
618.83	5910.64
618.93	5642.87
619.03	5381.14
619.13	5049.88
619.23	4849.49
619.33	4682.78
619.43	4680.84
619.53	4747.81
619.63	4787.02
619.73	4961.82
619.83	4916.76
619.93	4950.55
620.03	5094.53
620.13	5094.83
620.23	5153.30
620.33	5077.53
620.43	5325.74
620.53	5312.33
620.63	5640.21
620.73	5748.34
620.83	5961.74
620.93	6089.53
621.03	6287.47
621.13	6341.23
621.23	6549.51
621.33	6584.63
621.43	6767.41
621.53	6745.19
621.63	7005.49
621.73	7223.49
621.83	7412.21
621.93	7590.28
622.03	7893.79
622.13	8137.40
622.23	8322.84
622.33	8321.51
622.43	8690.25
622.53	8552.83
622.63	8710.52
622.73	8698.95
622.83	8762.85
622.93	8692.50
623.03	8660.04
623.13	8511.05
623.23	8552.93
623.33	8451.15
623.42	8656.46
623.52	8807.08
623.62	9123.50
623.72	9137.01
623.82	9112.44
623.92	9014.44
624.02	8690.86
624.12	8278.20
624.22	8048.72
624.32	8128.39
624.42	8196.18
624.52	8116.82
624.62	8170.68
624.72	7962.81
624.82	7806.24
624.92	7380.67
625.02	7310.94
625.12	7504.88
625.22	7660.53
625.32	7747.88
625.42	8163.41
625.52	8000.59
625.62	7906.49
625.72	7600.52
625.82	7605.95
625.91	7385.49
626.01	7554.24
626.11	7820.17
626.21	8221.16
626.31	8387.97
626.41	8803.30
626.51	8842.21
626.61	9204.80
626.71	9316.82
626.81	9511.38
626.91	9636.61
627.01	9989.89
627.11	10173.80
627.21	10704.43
627.31	11188.57
627.41	11861.22
627.51	11999.15
627.60	11895.93
627.70	11538.87
627.80	11112.28
627.90	10420.99
628.00	9996.95
628.10	10115.94
628.20	10604.38
628.30	10871.74
628.40	11129.07
628.50	11480.09
628.60	12099.40
628.70	12250.85
628.80	12979.51
628.89	13001.32
628.99	13694.87
629.09	13963.36
629.19	14506.68
629.29	14817.26
629.39	15202.48
629.49	15287.68
629.59	15649.14
629.69	15665.94
629.79	15732.80
629.89	15637.88
629.98	15699.73
630.08	15502.61
630.18	15522.99
630.28	15572.34
630.38	15978.15
630.48	16160.11
630.58	16691.15
630.68	17175.49
630.78	17751.38
630.88	17870.27
630.98	18204.60
631.07	18284.67
631.17	18453.63
631.27	18660.68
631.37	19198.89
631.47	19383.92
631.57	19598.04
631.67	19779.49
631.77	20070.71
631.87	20171.98
631.96	20706.30
632.06	21339.32
632.16	21030.80
632.26	19855.26
632.36	18289.18
632.46	15657.85
632.56	13096.76
632.66	10670.02
632.75	9692.73
632.85	8730.59
632.95	8366.87
633.05	8521.29
633.15	8687.79
633.25	8589.18
633.35	8938.36
633.45	8919.42
633.55	9020.89
633.64	9063.18
633.74	9103.73
633.84	9098.00
633.94	9277.50
634.04	9123.29
634.14	9153.91
634.24	9111.41
634.33	9485.88
634.43	9518.96
634.53	9957.74
634.63	10235.34
634.73	10477.61
634.83	10861.30
634.93	11246.83
635.02	11550.03
635.12	12145.17
635.22	12226.27
635.32	12885.20
635.42	13163.73
635.52	13673.06
635.62	14080.30
635.71	14567.82
635.81	14772.82
635.91	15313.17
636.01	15585.76
636.11	15997.20
636.21	16324.56
636.31	16752.69
636.40	16618.55
636.50	16758.02
636.60	16612.51
636.70	16998.45
636.80	16728.32
636.90	16996.09
636.99	16401.87
637.09	16224.93
637.19	15738.84
637.29	15336.42
637.39	14822.89
637.49	15253.37
637.58	15380.65
637.68	15841.14
637.78	16141.68
637.88	16706.00
637.98	16520.45
638.08	16914.38
638.17	16509.70
638.27	16289.54
638.37	16106.86
638.47	16484.92
638.57	16527.42
638.66	16472.02
638.76	15932.38
638.86	15494.52
638.96	14685.68
639.06	13716.07
639.16	13642.65
639.25	13855.63
639.35	13975.03
639.45	14537.51
639.55	14568.23
639.65	14107.64
639.74	12783.42
639.84	12002.53
639.94	11121.80
640.04	10208.41
640.14	9781.71
640.23	10267.18
640.33	10338.15
640.43	10799.96
640.53	10834.27
640.63	11326.50
640.73	11282.16
640.82	11614.54
640.92	11690.62
641.02	11713.46
641.12	11463.71
641.21	11747.35
641.31	11600.82
641.41	11833.98
641.51	12068.48
641.61	12567.46
641.70	12679.79
641.80	13615.61
641.90	13812.53
642.00	14629.26
642.10	14981.71
642.19	15873.09
642.29	16073.07
642.39	17207.96
642.49	17607.10
642.59	18572.93
642.68	19042.12
642.78	19803.76
642.88	20874.23
642.98	21429.02
643.07	22183.39
643.17	23016.61
643.27	23391.28
643.37	24586.07
643.46	24460.63
643.56	25309.82
643.66	25554.35
643.76	25661.97
643.86	25795.70
643.95	26246.56
644.05	26122.15
644.15	26835.97
644.25	26622.47
644.34	25948.89
644.44	25134.62
644.54	24583.51
644.64	23732.27
644.73	23952.63
644.83	23496.55
644.93	24482.54
645.03	24891.93
645.12	25450.93
645.22	25988.31
645.32	26605.06
645.42	26495.80
645.51	26230.59
645.61	25532.85
645.71	25835.84
645.81	26221.88
645.90	26721.28
646.00	26601.37
646.10	26264.99
646.20	25357.23
646.29	24315.43
646.39	22619.81
646.49	21837.59
646.59	22003.07
646.68	22462.02
646.78	23403.16
646.88	23852.59
646.98	23616.46
647.07	22201.93
647.17	20127.33
647.27	18737.69
647.37	17052.10
647.46	15824.35
647.56	15667.68
647.66	16156.02
647.75	16370.75
647.85	16837.58
647.95	17466.72
648.05	17789.17
648.14	18033.80
648.24	18669.69
648.34	18820.12
648.44	19340.40
648.53	19168.37
648.63	19210.15
648.73	18948.32
648.82	18916.88
648.92	18574.36
649.02	18883.30
649.12	19222.54
649.21	19648.31
649.31	20471.91
649.41	21252.39
649.50	21928.52
649.60	23107.64
649.70	23747.63
649.80	24695.74
649.89	25487.69
649.99	26727.53
650.09	27442.37
650.18	28564.56
650.28	29533.14
650.38	30869.65
650.47	31829.02
650.57	33193.58
650.67	33784.83
650.77	34853.87
650.86	35768.49
650.96	36858.73
651.06	37059.63
651.15	37996.37
651.25	38112.70
651.35	38538.37
651.44	38573.80
651.54	39434.66
651.64	38757.30
651.73	39465.59
651.83	38441.40
651.93	38241.00
652.03	36065.55
652.12	35218.20
652.22	34321.50
652.32	34581.49
652.41	34550.15
652.51	35757.94
652.61	36413.09
652.70	37375.84
652.80	37669.11
652.90	38868.19
652.99	38468.74
653.09	38857.44
653.19	37544.59
653.28	37904.83
653.38	38141.98
653.48	38623.56
653.57	38892.67
653.67	38891.85
653.77	37608.80
653.86	35466.21
653.96	33366.53
654.06	31265.21
654.15	30502.55
654.25	31002.46
654.35	31953.23
654.44	32961.03
654.54	33413.02
654.64	32079.89
654.73	28729.72
654.83	25954.42
654.93	23129.96
655.02	20920.00
655.12	19027.98
655.22	19206.47
655.31	19849.73
655.41	20591.40
655.51	20344.62
655.60	21293.35
655.70	21797.35
655.79	22001.12
655.89	22086.22
655.99	22586.84
656.08	22555.71
656.18	22614.49
656.28	22159.64
656.37	22442.15
656.47	22016.07
656.57	22549.67
656.66	22440.92
656.76	23245.88
656.85	23863.96
656.95	24798.34
657.05	25701.29
657.14	26607.93
657.24	27463.98
657.34	28714.16
657.43	29393.57
657.53	30623.58
657.63	31518.14
657.72	32717.84
657.82	33735.68
657.91	34846.19
658.01	36385.85
658.11	37910.67
658.20	39408.65
658.30	40511.59
658.39	41724.80
658.49	43464.35
658.59	44379.07
658.68	45676.46
658.78	46598.97
658.88	47382.73
658.97	47174.76
659.07	48009.10
659.16	47882.43
659.26	48372.20
659.36	48357.25
659.45	48796.03
659.55	48443.98
659.64	48187.68
659.74	45914.54
659.84	45165.80
659.93	42873.41
660.03	42526.38
660.12	42039.47
660.22	42930.34
660.32	43509.61
660.41	44905.71
660.51	45785.31
660.60	46617.71
660.70	47213.56
660.80	48239.29
660.89	47520.86
660.99	47280.02
661.08	46599.79
661.18	47715.42
661.28	47704.56
661.37	48236.01
661.47	48130.44
661.56	47310.84
661.66	45186.79
661.75	42288.61
661.85	39326.22
661.95	37936.57
662.04	37890.39
662.14	39003.87
662.23	40470.73
662.33	41533.63
662.43	40984.57
662.52	38552.60
662.62	34357.03
662.71	30886.85
662.81	26533.48
662.90	23539.15
663.00	21778.41
663.10	22071.88
663.19	22555.10
663.29	23397.94
663.38	23432.76
663.48	24268.02
663.57	24628.87
663.67	25203.74
663.77	24962.79
663.86	25189.20
663.96	25362.04
664.05	25332.35
664.15	24730.76
664.24	24842.48
664.34	24289.83
664.43	24107.97
664.53	24050.22
664.63	24234.23
664.72	24410.05
664.82	25214.39
664.91	25413.35
665.01	26619.81
665.10	27105.69
665.20	28565.17
665.29	29184.27
665.39	30428.72
665.48	31377.85
665.58	32369.37
665.68	33371.75
665.77	34173.33
665.87	35200.28
665.96	36728.89
666.06	37591.49
666.15	39498.46
666.25	40043.63
666.34	40968.39
666.44	41937.48
666.53	43934.15
666.63	44293.78
666.72	45209.93
666.82	46238.63
666.91	47050.96
667.01	47103.69
667.11	47109.32
667.20	47270.60
667.30	47601.04
667.39	47986.26
667.49	48440.20
667.58	47630.63
667.68	47391.74
667.77	45218.13
667.87	44404.06
667.96	41928.27
668.06	41027.57
668.15	40914.52
668.25	41190.08
668.34	41739.34
668.44	42533.85
668.53	43217.57
668.63	44109.97
668.72	44778.43
668.82	45205.12
668.91	45879.62
669.01	45412.79
669.10	44330.84
669.20	45282.64
669.29	45122.18
669.39	45602.32
669.48	45999.84
669.58	46321.88
669.67	44568.20
669.77	42219.29
669.86	39308.00
669.96	37310.00
670.05	35064.09
670.15	36032.68
670.24	36675.74
670.34	38674.97
670.43	39467.84
670.53	40124.42
670.62	37539.06
670.72	34059.77
670.81	30021.48
670.91	26335.65
671.00	22724.57
671.10	21365.64
671.19	21058.75
671.29	21772.77
671.38	22381.02
671.48	22857.28
671.57	23105.80
671.67	23895.90
671.76	24484.29
671.86	25352.52
671.95	24982.04
672.04	25834.72
672.14	26071.36
672.23	26091.02
672.33	25867.18
672.42	26030.60
672.52	26035.31
672.61	26141.09
672.71	25899.23
672.80	26348.65
672.90	26591.34
672.99	27370.39
673.09	27869.07
673.18	29185.60
673.28	29660.32
673.37	31437.04
673.46	32619.33
673.56	34298.15
673.65	35283.94
673.75	37022.87
673.84	38029.65
673.94	40166.40
674.03	41903.69
674.13	44425.25
674.22	47155.71
674.32	50413.62
674.41	50980.60
674.50	51053.92
674.60	49076.40
674.69	46957.16
674.79	43229.45
674.88	40038.71
674.98	37103.36
675.07	36763.09
675.17	36041.79
675.26	35932.64
675.35	35562.67
675.45	36042.41
675.54	35563.28
675.64	36214.03
675.73	35969.91
675.83	36460.29
675.92	36177.47
676.01	35132.80
676.11	33490.33
676.20	32248.34
676.30	30620.61
676.39	30248.70
676.49	29872.29
676.58	30171.80
676.67	30427.80
676.77	31440.01
676.86	31579.37
676.96	32276.29
677.05	32603.15
677.15	33536.82
677.24	33598.36
677.33	33747.04
677.43	33052.07
677.52	33312.77
677.62	33307.24
677.71	33814.73
677.80	33783.09
677.90	34441.10
677.99	32668.38
678.09	31217.09
678.18	29280.73
678.27	26757.63
678.37	24745.91
678.46	24411.79
678.56	25024.64
678.65	25970.39
678.74	27048.34
678.84	28273.74
678.93	26895.67
679.03	25096.53
679.12	21778.10
679.21	18440.83
679.31	14978.84
679.40	12465.58
679.50	11160.71
679.59	11015.92
679.68	11102.35
679.78	11481.12
679.87	11414.46
679.97	11794.35
680.06	11899.93
680.15	12169.34
680.25	12184.49
680.34	12187.77
680.44	12063.05
680.53	11957.27
680.62	11611.06
680.72	11151.39
680.81	10751.53
680.90	10488.57
681.00	9880.63
681.09	9712.49
681.19	9264.91
681.28	9127.28
681.37	9021.00
681.47	9162.92
681.56	9176.54
681.65	9374.27
681.75	9484.55
681.84	9826.05
681.94	10149.84
682.03	10435.32
682.12	10659.68
682.22	10913.93
682.31	11173.92
682.40	11475.18
682.50	11877.81
682.59	12314.23
682.68	12580.67
682.78	13216.46
682.87	13545.88
682.96	14113.06
683.06	14311.92
683.15	14678.41
683.25	15226.14
683.34	15601.22
683.43	15883.23
683.53	16197.90
683.62	16490.76
683.71	16870.24
683.81	16896.97
683.90	17151.23
683.99	16923.29
684.09	17180.31
684.18	17299.50
684.27	17341.58
684.37	17413.78
684.46	17355.51
684.55	16951.24
684.65	16332.24
684.74	15524.12
684.83	14914.43
684.93	14170.31
685.02	14234.82
685.11	14031.86
685.21	14437.46
685.30	14596.08
685.39	15063.83
685.49	15317.99
685.58	15608.49
685.67	15675.15
685.77	16137.79
685.86	16254.22
685.95	16088.02
686.05	15887.83
686.14	15983.06
686.23	15679.66
686.33	15952.35
686.42	15953.37
686.51	16080.34
686.61	15623.95
686.70	14961.33
686.79	13985.07
686.88	13088.06
686.98	11908.43
687.07	11551.67
687.16	11481.42
687.26	11965.05
687.35	12386.11
687.44	13052.01
687.54	12805.64
687.63	12328.16
687.72	11023.29
687.82	9625.86
687.91	7986.67
688.00	6630.91
688.09	5812.95
688.19	5472.89
688.28	5377.86
688.37	5463.06
688.47	5364.35
688.56	5395.17
688.65	5352.88
688.74	5355.34
688.84	5366.29
688.93	5408.48
689.02	5295.74
689.12	5328.41
689.21	5250.58
689.30	5089.41
689.39	4907.04
689.49	4779.96
689.58	4603.01
689.67	4318.45
689.77	4061.53
689.86	3862.57
689.95	3606.88
690.04	3413.45
690.14	3215.11
690.23	3163.09
690.32	3107.79
690.42	3126.94
690.51	3044.20
690.60	3017.68
690.69	3015.53
690.79	2967.61
690.88	2966.59
690.97	2923.07
691.06	2891.32
691.16	2880.37
691.25	2841.86
691.34	2860.91
691.43	2911.60
691.53	2897.88
691.62	2813.40
691.71	2810.43
691.80	2742.23
691.90	2704.24
691.99	2691.34
692.08	2688.98
692.18	2818.52
692.27	2877.91
692.36	2834.49
692.45	2857.22
692.55	2802.95
692.64	2836.33
692.73	2826.09
692.82	2828.45
692.91	2795.58
693.01	2831.21
693.10	2846.06
693.19	2824.87
693.28	2759.02
693.38	2796.60
693.47	2743.36
693.56	2752.47
693.65	2715.40
693.75	2774.28
693.84	2796.40
693.93	2823.64
694.02	2801.52
694.12	2844.32
694.21	2791.38
694.30	2861.01
694.39	2851.08
694.48	2916.82
694.58	2885.18
694.67	2920.10
694.76	2839.51
694.85	2833.88
694.95	2743.97
695.04	2700.25
695.13	2661.74
695.22	2723.49
695.31	2691.75
695.41	2704.04
695.50	2692.46
695.59	2693.59
695.68	2629.18
695.78	2653.04
695.87	2653.04
695.96	2679.66
696.05	2682.63
696.14	2760.87
696.24	2768.44
696.33	2809.30
696.42	2788.31
696.51	2762.61
696.60	2703.22
696.70	2601.84
696.79	2532.72
696.88	2563.34
696.97	2470.98
697.06	2539.17
697.16	2550.75
697.25	2604.30
697.34	2623.55
697.43	2826.20
697.52	2830.80
697.62	2935.66
697.71	3005.80
697.80	3077.48
697.89	3071.34
697.98	3068.88
698.08	3096.63
698.17	3171.38
698.26	3190.43
698.35	3301.94
698.44	3294.67
698.53	3384.37
698.63	3344.84
698.72	3447.35
698.81	3442.12
698.90	3503.97
698.99	3551.08
699.08	3597.36
699.18	3646.92
699.27	3699.76
699.36	3727.30
699.45	3810.35
699.54	3849.05
699.64	3922.78
699.73	4020.37
699.82	4230.28
699.91	4301.14
700.00	4546.80
700.09	4638.34
700.19	4606.39
700.28	4476.65
700.37	4392.28
700.46	4192.09
700.55	4076.79
700.64	3926.78
700.73	3907.52
700.83	3840.15
700.92	3799.49
701.01	3789.56
701.10	3810.86
701.19	3773.08
701.28	3804.61
701.38	3823.76
701.47	3902.20
701.56	3919.71
701.65	3927.90
701.74	3931.69
701.83	3937.63
701.92	3928.21
702.02	4004.70
702.11	4016.58
702.20	4120.10
702.29	4119.69
702.38	4254.76
702.47	4389.62
702.56	4465.70
702.66	4594.72
702.75	4695.07
702.84	4665.48
702.93	4695.38
703.02	4682.37
703.11	4686.67
703.20	4661.89
703.29	4758.86
703.39	4754.56
703.48	4898.84
703.57	4914.72
703.66	5113.68
703.75	5129.24
703.84	5428.35
703.93	5393.43
704.02	5602.32
704.12	5781.42
704.21	5956.82
704.30	6138.68
704.39	6446.49
704.48	6616.68
704.57	6814.92
704.66	6976.20
704.75	6964.63
704.84	6891.82
704.94	6975.69
705.03	6927.56
705.12	7031.29
705.21	7036.72
705.30	7160.21
705.39	7283.50
705.48	7512.15
705.57	7552.50
705.66	7757.81
705.75	8028.65
705.85	8299.80
705.94	8281.27
706.03	8515.04
706.12	8613.14
706.21	8772.88
706.30	8955.46
706.39	9230.30
706.48	9577.94
706.57	9932.96
706.66	10097.51
706.75	10610.32
706.85	10952.02
706.94	11518.08
707.03	11994.85
707.12	12860.42
707.21	13673.98
707.30	14529.21
707.39	14506.17
707.48	13839.46
707.57	13074.03
707.66	11728.92
707.75	10108.98
707.84	8859.10
707.93	7819.55
708.03	7357.12
708.12	6993.81
708.21	6956.34
708.30	6783.08
708.39	6825.06
708.48	6816.05
708.57	7140.24
708.66	7063.75
708.75	7141.27
708.84	7211.72
708.93	7408.73
709.02	7369.21
709.11	7386.10
709.20	7309.30
709.29	7479.18
709.39	7536.42
709.48	7754.43
709.57	7912.12
709.66	8242.56
709.75	8361.14
709.84	8588.16
709.93	8507.26
710.02	8722.71
710.11	8671.41
710.20	8743.70
710.29	8815.38
710.38	8920.13
710.47	8851.73
710.56	9169.78
710.65	9309.76
710.74	9383.69
710.83	9529.92
710.92	9793.59
711.01	10111.64
711.10	10349.10
711.19	10425.29
711.28	10830.58
711.38	10909.32
711.47	11220.92
711.56	11433.40
711.65	11744.90
711.74	12115.37
711.83	12447.45
711.92	12614.77
712.01	12884.18
712.10	13107.20
712.19	13466.93
712.28	13703.88
712.37	14188.74
712.46	14721.52
712.55	14916.79
712.64	15187.02
712.73	15471.89
712.82	15998.94
712.91	16335.73
713.00	16528.54
713.09	16596.94
713.18	16643.74
713.27	16659.41
713.36	16284.94
713.45	16675.89
713.54	16364.19
713.63	16738.77
713.72	17099.00
713.81	17246.97
713.90	17405.48
713.99	17850.71
714.08	18378.78
714.17	18990.61
714.26	19341.84
714.35	20063.95
714.44	20254.72
714.53	20827.94
714.62	21222.69
714.71	22263.98
714.80	23014.77
714.89	24147.80
714.98	25314.02
715.07	27310.07
715.16	28910.25
715.25	31576.20
715.34	32409.21
715.43	32353.81
715.52	30442.03
715.61	27422.92
715.70	23692.23
715.79	19680.37
715.88	15550.74
715.97	12890.12
716.06	11247.24
716.15	10418.43
716.24	10025.93
716.33	9943.40
716.42	9809.77
716.51	9770.76
716.60	9245.35
716.69	8804.42
716.78	8109.65
716.87	7576.77
716.96	6963.09
717.05	6794.65
717.13	6618.73
717.22	6607.87
717.31	6607.87
717.40	6643.92
717.49	6555.55
717.58	6611.15
717.67	6585.96
717.76	6769.25
717.85	6855.37
717.94	6884.35
718.03	6777.34
718.12	6727.07
718.21	6558.21
718.30	6502.30
718.39	6352.49
718.48	6278.46
718.57	6446.70
718.66	6562.00
718.75	6682.73
718.84	6722.15
718.93	6641.46
719.02	6796.39
719.10	6776.42
719.19	7002.41
719.28	6982.86
719.37	7166.46
719.46	7334.08
719.55	7794.57
719.64	7663.81
719.73	7711.52
719.82	7760.06
719.91	8074.42
720.00	8171.70
720.09	8355.51
720.18	8551.70
720.27	8996.21
720.36	9152.07
720.44	9313.45
720.53	9237.16
720.62	9612.96
720.71	9723.14
720.80	9807.11
720.89	10158.44
720.98	10579.70
721.07	10861.10
721.16	11060.77
721.25	11122.62
721.34	11303.15
721.43	11306.32
721.52	11550.34
721.60	12000.18
721.69	12802.06
721.78	12954.02
721.87	13488.64
721.96	13844.78
722.05	14206.86
722.14	14292.36
722.23	14642.77
722.32	14893.44
722.41	15917.12
722.50	16468.13
722.58	16723.00
722.67	16811.06
722.76	17539.73
722.85	17463.54
722.94	17905.39
723.03	17827.26
723.12	18472.88
723.21	18312.12
723.30	18715.06
723.38	18473.19
723.47	18377.86
723.56	18415.85
723.65	18942.28
723.74	19095.88
723.83	19284.19
723.92	18715.57
724.01	18814.07
724.10	18064.01
724.18	17688.10
724.27	17121.12
724.36	17251.78
724.45	16936.09
724.54	17189.83
724.63	17103.41
724.72	17615.30
724.81	17825.52
724.89	18257.95
724.98	18615.42
725.07	19102.22
725.16	19278.55
725.25	19371.02
725.34	18817.97
725.43	18570.37
725.52	18076.81
725.60	18088.89
725.69	17900.27
725.78	18468.58
725.87	19055.73
725.96	19843.69
726.05	20000.87
726.14	19902.67
726.22	18689.15
726.31	17955.26
726.40	16657.97
726.49	15752.98
726.58	15197.87
726.67	15282.86
726.76	15368.16
726.84	15997.50
726.93	16254.73
727.02	16863.38
727.11	17597.99
727.20	18151.86
727.29	18200.50
727.38	17786.40
727.46	16769.28
727.55	15721.03
727.64	14246.80
727.73	13060.20
727.82	12311.26
727.91	12028.95
727.99	11740.80
728.08	11933.72
728.17	12215.11
728.26	12670.78
728.35	12710.62
728.44	12938.86
728.52	13060.51
728.61	13345.69
728.70	13291.52
728.79	13497.55
728.88	13273.09
728.97	13534.92
729.05	13178.99
729.14	12933.74
729.23	12531.83
729.32	12385.91
729.41	11841.25
729.49	11677.83
729.58	11675.47
729.67	11967.00
729.76	12006.52
729.85	12047.69
729.94	11915.80
730.02	12178.45
730.11	12373.93
730.20	12821.41
730.29	12731.20
730.38	13047.61
730.46	13296.95
730.55	13892.29
730.64	14093.51
730.73	14110.30
730.82	13833.31
730.90	14414.12
730.99	14777.02
731.08	14998.71
731.17	14967.27
731.26	15541.22
731.34	16094.27
731.43	16525.98
731.52	16421.23
731.61	16673.33
731.70	17003.67
731.78	17497.13
731.87	17602.29
731.96	18421.38
732.05	19181.07
732.13	19900.62
732.22	19987.25
732.31	20506.00
732.40	20628.88
732.49	21089.06
732.57	20694.83
732.66	21614.77
732.75	22844.89
732.84	23579.90
732.93	23790.33
733.01	24725.84
733.10	25148.54
733.19	26035.93
733.28	25679.17
733.36	26433.54
733.45	27210.54
733.54	28901.14
733.63	29447.23
733.71	30015.34
733.80	30692.09
733.89	31598.42
733.98	31738.19
734.07	32321.15
734.15	32642.57
734.24	33687.35
734.33	34019.32
734.42	34528.14
734.50	33525.66
734.59	33843.61
734.68	32965.44
734.77	33511.42
734.85	33447.12
734.94	34281.36
735.03	33482.24
735.12	33388.44
735.20	31764.00
735.29	30990.99
735.38	29010.09
735.47	28220.80
735.55	27497.67
735.64	27476.88
735.73	27333.01
735.82	27965.63
735.90	28374.91
735.99	29032.62
736.08	29700.26
736.17	30448.28
736.25	30872.82
736.34	31990.30
736.43	32179.84
736.51	32041.09
736.60	31173.98
736.69	30186.55
736.78	29581.58
736.86	29310.22
736.95	28848.61
737.04	29503.86
737.13	30926.99
737.21	32715.89
737.30	33114.53
737.39	32954.58
737.47	31419.83
737.56	29626.94
737.65	27296.86
737.74	25267.33
737.82	23432.76
737.91	23028.59
738.00	23273.63
738.08	23865.90
738.17	24211.19
738.26	25252.17
738.35	26134.44
738.43	27689.15
738.52	28407.17
738.61	28720.51
738.69	27417.69
738.78	25704.36
738.87	23044.56
738.96	20715.00
739.04	17936.52
739.13	16384.47
739.22	15647.30
739.30	15716.42
739.39	15646.17
739.48	16033.65
739.56	16248.17
739.65	16835.12
739.74	17106.68
739.82	17483.61
739.91	17343.12
740.00	17810.57
740.09	17777.29
740.17	18221.90
740.26	18294.91
740.35	18611.74
740.43	18334.85
740.52	18317.54
740.61	17733.57
740.69	17428.01
740.78	16744.40
740.87	16495.47
740.95	16207.83
741.04	16488.30
741.13	16528.85
741.21	16835.53
741.30	16791.60
741.39	16979.61
741.47	17150.10
741.56	18249.35
741.65	19052.97
741.73	20067.53
741.82	21087.83
741.91	22735.12
741.99	24197.47
742.08	25544.83
742.17	25949.91
742.25	27075.17
742.34	27433.46
742.43	27778.55
742.51	27045.88
742.60	26787.74
742.69	25584.66
742.77	24851.18
742.86	24435.24
742.95	24108.18
743.03	23583.79
743.12	23829.14
743.21	24070.29
743.29	25047.17
743.38	25158.78
743.47	26689.33
743.55	28072.84
743.64	29519.63
743.73	30481.56
743.81	31204.39
743.90	32803.95
743.98	34687.16
744.07	37403.28
744.16	40912.27
744.24	43801.85
744.33	45214.03
744.42	45696.74
744.50	45324.42
744.59	43578.83
744.68	41511.20
744.76	39374.66
744.85	38608.92
744.93	39007.66
745.02	40917.29
745.11	42295.57
745.19	44307.80
745.28	44034.81
745.37	45106.31
745.45	45704.31
745.54	46589.65
745.62	46823.12
745.71	47311.25
745.80	47891.54
745.88	50011.09
745.97	49938.80
746.05	50384.64
746.14	49961.02
746.23	50916.91
746.31	51571.33
746.40	53460.07
746.49	55188.97
746.57	59087.99
746.66	62423.21
746.74	64172.69
746.83	64138.59
746.92	64196.75
747.00	62855.03
747.09	60118.43
747.17	55142.48
747.26	49820.94
747.35	46176.06
747.43	45488.46
747.52	45211.37
747.60	45880.44
747.69	45934.71
747.78	47021.36
747.86	47258.01
747.95	49053.46
748.03	49469.81
748.12	50865.09
748.20	50047.65
748.29	49066.87
748.38	47994.45
748.46	46944.67
748.55	45683.01
748.63	45953.24
748.72	46186.92
748.81	48805.25
748.89	51422.65
748.98	53471.64
749.06	52993.96
749.15	52053.73
749.23	48751.69
749.32	46266.69
749.41	42462.79
749.49	39488.93
749.58	37629.28
749.66	37753.18
749.75	38191.14
749.83	40021.61
749.92	40933.16
750.01	42868.49
750.09	44329.10
750.18	46711.91
750.26	48072.69
750.35	48963.45
750.43	47020.54
750.52	44846.52
750.60	41196.84
750.69	38456.14
750.78	34768.47
750.86	33087.50
750.95	32523.07
751.03	32371.53
751.12	31051.81
751.20	29904.75
751.29	28193.46
751.37	26386.44
751.46	24684.37
751.55	23512.93
751.63	22330.64
751.72	21940.61
751.80	21458.31
751.89	21405.37
751.97	21124.49
752.06	21321.30
752.14	21330.00
752.23	21153.57
752.31	20638.51
752.40	20092.62
752.48	19032.59
752.57	18198.46
752.65	17249.43
752.74	16660.94
752.83	16021.67
752.91	16128.16
753.00	16129.80
753.08	16177.21
753.17	16102.15
753.25	16126.12
753.34	16005.80
753.42	16418.77
753.51	16700.98
753.59	17319.16
753.68	17464.26
753.76	18291.13
753.85	18772.40
753.93	19831.91
754.02	19684.67
754.10	19567.73
754.19	19485.30
754.27	20140.95
754.36	20216.93
754.44	20814.22
754.53	21270.92
754.61	22022.01
754.70	22799.22
754.78	24308.88
754.87	24285.94
754.95	24361.92
755.04	23902.05
755.12	24991.67
755.21	25308.18
755.29	26111.81
755.38	26266.94
755.46	28079.49
755.55	29176.80
755.63	30290.48
755.72	30314.96
755.80	30544.63
755.89	30973.99
755.97	31404.17
756.06	31662.11
756.14	32699.81
756.23	34217.87
756.31	36052.34
756.40	36444.42
756.48	38035.49
756.57	38613.63
756.65	39548.22
756.74	39126.03
756.82	40190.36
756.91	39921.87
756.99	42020.84
757.08	44520.90
757.16	46360.48
757.25	46700.65
757.33	48081.90
757.41	48660.04
757.50	49369.56
757.58	49707.48
757.67	50222.85
757.75	50577.97
757.84	52312.80
757.92	53227.73
758.01	54342.03
758.09	53315.08
758.18	53000.51
758.26	53226.09
758.35	53949.33
758.43	53922.61
758.51	55699.94
758.60	56596.95
758.68	57925.98
758.77	56774.92
758.85	56378.63
758.94	54107.64
759.02	51423.88
759.11	48812.72
759.19	47677.94
759.27	46337.14
759.36	46638.49
759.44	46938.42
759.53	48827.88
759.61	48529.49
759.70	49687.31
759.78	50679.55
759.87	51713.26
759.95	52225.05
760.03	53813.76
760.12	54341.21
760.20	56791.71
760.29	56886.22
760.37	57446.85
760.46	56399.63
760.54	56409.56
760.62	56289.85
760.71	57122.15
760.79	58024.07
760.88	59801.81
760.96	61612.22
761.05	63813.68
761.13	63609.60
761.21	62442.06
761.30	56888.48
761.38	51934.75
761.47	46068.95
761.55	40828.00
761.64	35754.87
761.72	33025.13
761.80	31551.93
761.89	31997.67
761.97	32586.56
762.06	34315.35
762.14	35256.70
762.22	37211.49
762.31	39108.93
762.39	42003.02
762.48	43424.11
762.56	42965.77
762.64	40356.76
762.73	36784.80
762.81	31741.98
762.90	27032.47
762.98	21775.13
763.06	17902.22
763.15	16228.92
763.23	15825.47
763.32	15656.11
763.40	15851.79
763.48	15844.42
763.57	16307.16
763.65	16622.85
763.74	17366.57
763.82	17849.79
763.90	18101.89
763.99	18226.10
764.07	18108.14
764.15	17870.47
764.24	17894.95
764.32	17830.03
764.41	17847.54
764.49	17830.44
764.57	17806.27
764.66	17126.24
764.74	16504.89
764.82	15192.34
764.91	14542.73
764.99	13239.40
765.08	12649.18
765.16	11907.30
765.24	11888.56
765.33	11881.39
765.41	12009.80
765.49	11789.44
765.58	11671.78
765.66	11434.94
765.74	11632.05
765.83	11723.19
765.91	12083.32
766.00	12389.90
766.08	12960.88
766.16	13297.97
766.25	13889.43
766.33	13877.45
766.41	13751.91
766.50	13520.79
766.58	13726.92
766.66	13822.56
766.75	14277.52
766.83	14515.08
766.91	14946.49
767.00	15361.71
767.08	16140.25
767.16	16853.35
767.25	17432.72
767.33	16777.88
767.41	16652.14
767.50	16747.26
767.58	17434.46
767.66	17484.53
767.75	18084.69
767.83	18545.28
767.91	19616.98
768.00	20458.08
768.08	21011.24
768.16	20881.40
768.25	21014.92
768.33	21030.28
768.41	21510.53
768.50	21455.85
768.58	22502.98
768.66	23378.69
768.75	24277.24
768.83	25057.72
768.91	25838.50
769.00	26277.08
769.08	26861.36
769.16	26692.41
769.25	26914.92
769.33	27166.31
769.41	27962.66
769.50	29192.67
769.58	30941.33
769.66	31754.98
769.74	32687.22
769.83	32850.03
769.91	33902.28
769.99	33815.24
770.08	34316.38
770.16	34555.68
770.24	35698.45
770.33	36175.01
770.41	37367.65
770.49	37646.17
770.58	37304.67
770.66	36022.44
770.74	36425.58
770.82	36454.25
770.91	36837.74
770.99	36758.68
771.07	38563.46
771.16	39671.51
771.24	40096.67
771.32	39324.28
771.40	38618.96
771.49	36670.52
771.57	34357.65
771.65	32198.16
771.74	30902.21
771.82	29215.09
771.90	28821.99
771.98	28745.80
772.07	30018.61
772.15	29780.84
772.23	30175.80
772.31	30888.90
772.40	31804.03
772.48	31807.51
772.56	32290.12
772.65	32662.85
772.73	33599.38
772.81	34025.87
772.89	35068.60
772.98	34461.89
773.06	33697.99
773.14	32678.72
773.22	32020.30
773.31	30907.74
773.39	30332.47
773.47	30283.21
773.55	32339.47
773.64	34232.62
773.72	35856.35
773.80	37334.47
773.88	36479.03
773.97	34411.10
774.05	32406.65
774.13	29178.95
774.21	26436.10
774.30	23689.06
774.38	21767.35
774.46	21424.62
774.54	21724.34
774.63	22343.44
774.71	23065.56
774.79	23879.42
774.87	25631.86
774.96	26989.77
775.04	29378.83
775.12	30615.19
775.20	30878.25
775.29	29080.03
775.37	26867.81
775.45	23590.14
775.53	19817.07
775.61	15708.23
775.70	12504.69
775.78	10565.68
775.86	9740.24
775.94	9383.90
776.03	9452.40
776.11	9703.89
776.19	10092.70
776.27	10273.02
776.36	10883.21
776.44	11442.10
776.52	12052.40
776.60	12429.63
776.68	12887.25
776.77	13005.11
776.85	13079.66
776.93	12507.87
777.01	12124.59
777.09	11530.88
777.18	11038.86
777.26	10546.73
777.34	10433.07
777.42	9978.11
777.50	9531.66
777.59	8668.44
777.67	8012.88
777.75	7213.87
777.83	6477.52
777.91	5815.41
778.00	5660.59
778.08	5561.67
778.16	5641.13
778.24	5603.96
778.32	5833.74
778.41	5891.90
778.49	6299.96
778.57	6611.56
778.65	7079.21
778.73	7235.06
778.82	7385.08
778.90	7361.42
778.98	7324.87
779.06	7029.96
779.14	6715.49
779.22	6324.64
779.31	6155.78
779.39	5744.65
779.47	5599.86
779.55	5494.60
779.63	5500.64
779.72	5389.23
779.80	5554.50
779.88	5550.20
779.96	5741.07
780.04	5876.44
780.12	6048.88
780.21	6101.82
780.29	6236.47
780.37	6366.73
780.45	6502.30
780.53	6617.50
780.61	6620.98
780.70	6736.08
780.78	6791.58
780.86	6862.64
780.94	7070.30
781.02	6965.96
781.10	7019.21
781.18	7036.31
781.27	6952.65
781.35	6957.46
781.43	6921.42
781.51	6835.20
781.59	6845.44
781.67	6807.65
781.75	6987.26
781.84	6915.17
781.92	7108.09
782.00	7065.08
782.08	7418.46
782.16	7644.66
782.24	8423.60
782.32	9352.05
782.41	10613.09
782.49	12084.24
782.57	14449.96
782.65	16698.73
782.73	19128.34
782.81	20209.66
782.89	19854.55
782.98	18521.42
783.06	17053.13
783.14	14802.72
783.22	12004.68
783.30	9352.05
783.38	8001.62
783.46	7080.03
783.54	6795.77
783.63	6459.81
783.71	6272.01
783.79	6045.60
783.87	6116.05
783.95	6125.27
784.03	6242.11
784.11	6278.87
784.19	6370.31
784.27	6377.58
784.36	6587.39
784.44	6482.13
784.52	6541.93
784.60	6391.61
784.68	6464.00
784.76	6396.63
784.84	6289.72
784.92	6274.16
785.00	6473.53
785.08	6574.49
785.17	6657.54
785.25	6646.48
785.33	6792.60
785.41	6742.02
785.49	6692.35
785.57	6558.42
785.65	6656.62
785.73	6714.37
785.81	7006.61
785.89	7057.91
785.98	7346.88
786.06	7364.70
786.14	7467.71
786.22	7323.02
786.30	7331.83
786.38	7238.85
786.46	7258.00
786.54	7128.57
786.62	7294.15
786.70	7390.81
786.78	7441.29
786.86	7312.58
786.94	7332.75
787.03	7173.11
787.11	7116.79
787.19	6839.81
787.27	6746.52
787.35	6767.41
787.43	6902.88
787.51	6944.56
787.59	7375.04
787.67	7571.14
787.75	7951.96
787.83	8120.61
787.91	8376.60
787.99	8580.07
788.07	8725.06
788.15	8928.32
788.23	9173.47
788.32	9387.99
788.40	9469.71
788.48	9472.88
788.56	9059.50
788.64	8478.80
788.72	7801.33
788.80	7025.45
788.88	6264.74
788.96	5628.94
789.04	5238.81
789.12	4931.51
789.20	4867.00
789.28	4761.63
789.36	4900.48
789.44	4888.81
789.52	4952.50
789.60	4860.55
789.68	4833.51
789.76	4731.32
789.84	4569.94
789.92	4284.35
790.00	4106.18
790.08	3982.07
790.16	3875.99
790.25	3625.72
790.33	3431.37
790.41	3266.20
790.49	3230.36
790.57	3154.38
790.65	3123.56
790.73	3004.88
790.81	3076.46
790.89	3102.37
790.97	3233.44
791.05	3317.20
791.13	3475.40
791.21	3493.73
791.29	3560.91
791.37	3516.16
791.45	3427.58
791.53	3194.32
791.61	3014.41
791.69	2891.53
791.77	2810.63
791.85	2649.76
791.93	2548.59
792.01	2495.55
792.09	2559.14
792.17	2518.39
792.25	2538.97
792.33	2556.79
792.41	2649.46
792.49	2747.45
792.57	2845.45
792.65	2812.68
792.73	2795.37
792.81	2715.09
792.89	2578.50
792.97	2504.36
793.05	2561.50
793.13	2589.25
793.21	2687.24
793.29	2708.75
793.37	2757.39
793.45	2712.13
793.53	2824.56
793.61	2841.86
793.69	2888.25
793.77	2886.92
793.85	2949.07
793.93	3007.85
794.01	3057.82
794.09	3044.92
794.16	2988.50
794.24	2994.23
794.32	3033.76
794.40	3101.85
794.48	3163.29
794.56	3074.10
794.64	3178.04
794.72	3132.16
794.80	3324.16
794.88	3327.33
794.96	3386.73
795.04	3395.63
795.12	3499.67
795.20	3501.82
795.28	3573.09
795.36	3572.78
795.44	3589.88
795.52	3620.81
795.60	3759.35
795.68	3810.35
795.76	3909.78
795.84	4008.39
795.92	4066.65
796.00	4045.97
796.07	4090.31
796.15	4112.83
796.23	4161.47
796.31	4138.94
796.39	4240.93
796.47	4271.24
796.55	4490.27
796.63	4594.00
796.71	4657.90
796.79	4715.65
796.87	4725.38
796.95	4707.87
797.03	4907.24
797.11	5022.64
797.19	5113.47
797.27	5288.26
797.34	5535.15
797.42	5802.92
797.50	5939.52
797.58	5977.00
797.66	6030.45
797.74	6077.04
797.82	6001.47
797.90	5974.74
797.98	6158.96
798.06	6139.91
798.14	6464.41
798.22	6511.72
798.29	6789.22
798.37	6860.59
798.45	7023.10
798.53	7056.89
798.61	7118.94
798.69	7157.24
798.77	7396.85
798.85	7642.40
798.93	7877.82
799.01	8195.66
799.09	8691.07
799.16	9421.17
799.24	10239.64
799.32	10966.87
799.40	11499.86
799.48	11824.77
799.56	11804.08
799.64	11075.01
799.72	10115.84
799.80	8879.79
799.88	7554.55
799.95	6159.16
800.03	5284.07
800.11	4588.47
800.19	4351.52
800.27	4109.45
800.35	3947.97
800.43	3814.85
800.51	3809.02
800.58	3815.26
800.66	3744.61
800.74	3611.39
800.82	3610.57
800.90	3537.46
800.98	3479.09
801.06	3402.50
801.14	3336.14
801.21	3315.15
801.29	3368.29
801.37	3440.38
801.45	3538.58
801.53	3584.97
801.61	3660.95
801.69	3777.79
801.77	3841.89
801.84	3805.54
801.92	3745.12
802.00	3663.10
802.08	3573.50
802.16	3419.60
802.24	3328.26
802.32	3225.55
802.39	3270.30
802.47	3276.75
802.55	3408.64
802.63	3507.56
802.71	3673.65
802.79	3800.11
802.87	3892.06
802.94	3845.88
803.02	3848.34
803.10	3725.56
803.18	3632.17
803.26	3360.10
803.34	3292.52
803.41	3169.95
803.49	3187.56
803.57	3149.47
803.65	3148.65
803.73	3134.42
803.81	3208.66
803.88	3162.58
803.96	3231.80
804.04	3280.33
804.12	3281.26
804.20	3264.46
804.28	3283.10
804.35	3285.15
804.43	3384.58
804.51	3397.89
804.59	3391.33
804.67	3267.94
804.75	3250.95
804.82	3063.15
804.90	2929.93
804.98	2728.71
805.06	2653.25
805.14	2621.09
805.21	2779.81
805.29	2864.39
805.37	3011.03
805.45	3138.20
805.53	3232.72
805.60	3344.33
805.68	3259.75
805.76	3178.24
805.84	3221.86
805.92	3192.58
805.99	3236.71
806.07	3129.40
806.15	3164.52
806.23	3153.87
806.31	3152.85
806.38	3097.76
806.46	3057.92
806.54	2979.08
806.62	3011.03
806.70	2932.18
806.77	2883.85
806.85	2783.50
806.93	2783.80
807.01	2781.55
807.09	2817.08
807.16	2785.54
807.24	2795.27
807.32	2775.92
807.40	2805.00
807.48	2720.52
807.55	2721.24
807.63	2770.90
807.71	2929.52
807.79	2908.01
807.86	3033.25
807.94	3038.78
808.02	3040.52
808.10	2974.78
808.17	3041.54
808.25	3016.35
808.33	3041.64
808.41	3100.22
808.49	3076.77
808.56	3162.88
808.64	3182.34
808.72	3332.86
808.80	3565.31
808.87	3665.97
808.95	3930.36
809.03	3928.00
809.11	4129.42
809.18	4174.68
809.26	4223.83
809.34	4014.63
809.42	4013.40
809.49	3918.38
809.57	3978.08
809.65	3923.81
809.73	3945.21
809.80	4028.76
809.88	4086.41
809.96	4077.40
810.04	4106.69
810.11	4225.06
810.19	4244.52
810.27	4344.15
810.35	4506.76
810.42	4656.77
810.50	4901.10
810.58	4904.89
810.66	5152.28
810.73	5107.12
810.81	5157.91
810.89	5203.17
810.96	5303.52
811.04	5197.95
811.12	5375.82
811.20	5623.31
811.27	5946.99
811.35	6256.34
811.43	7118.43
811.50	7695.75
811.58	8447.77
811.66	8434.56
811.74	8652.05
811.81	8089.68
811.89	7512.56
811.97	6561.59
812.05	5476.37
812.12	4510.75
812.20	3682.35
812.28	3032.02
812.35	2587.20
812.43	2333.66
812.51	2216.82
812.58	2138.39
812.66	2187.95
812.74	2239.45
812.82	2213.44
812.89	2298.23
812.97	2309.19
813.05	2291.37
813.12	2297.00
813.20	2249.28
813.28	2186.00
813.35	2179.35
813.43	2107.97
813.51	2134.50
813.59	2125.79
813.66	2102.85
813.74	2141.46
813.82	2105.00
813.89	2067.73
813.97	2034.25
814.05	2037.63
814.12	2005.99
814.20	2022.57
814.28	2064.05
814.35	2153.34
814.43	2207.71
814.51	2281.74
814.58	2332.02
814.66	2324.34
814.74	2284.61
814.81	2262.39
814.89	2193.89
814.97	2197.98
815.04	2118.21
815.12	2145.45
815.20	2101.63
815.27	2081.97
815.35	2116.78
815.43	2152.21
815.50	2091.59
815.58	2110.12
815.66	2183.95
815.73	2251.33
815.81	2279.49
815.89	2294.65
815.96	2323.83
816.04	2266.79
816.12	2244.57
816.19	2199.42
816.27	2196.86
816.35	2294.03
816.42	2435.55
816.50	2592.93
816.58	2677.41
816.65	2763.02
816.73	2783.39
816.80	2758.00
816.88	2658.67
816.96	2535.18
817.03	2387.83
817.11	2313.49
817.19	2262.60
817.26	2306.01
817.34	2312.98
817.42	2373.70
817.49	2373.80
817.57	2444.25
817.64	2453.77
817.72	2385.47
817.80	2421.31
817.87	2414.25
817.95	2435.14
818.03	2549.11
818.10	2688.78
818.18	3146.91
818.25	3899.95
818.33	4688.52
818.41	5208.50
818.48	5750.90
818.56	6401.44
818.63	6966.06
818.71	6923.26
818.79	6346.45
818.86	5553.99
818.94	5104.05
819.02	4419.00
819.09	3653.06
819.17	2893.06
819.24	2489.41
819.32	2176.79
819.40	2072.75
819.47	1970.76
819.55	1952.53
819.62	1922.12
819.70	1968.10
819.78	2106.64
819.85	2301.71
819.93	2546.65
820.00	2699.12
820.08	2743.36
820.16	2773.87
820.23	2657.85
820.31	2518.39
820.38	2300.48
820.46	2064.45
820.53	1870.82
820.61	1779.89
820.69	1734.42
820.76	1854.54
820.84	2029.95
820.91	2283.28
820.99	2362.84
821.07	2573.58
821.14	2740.69
821.22	3096.94
821.29	3579.75
821.37	4709.51
821.44	6209.75
821.52	7121.20
821.60	7384.98
821.67	7772.96
821.75	7543.59
821.82	7154.89
821.90	6018.67
821.97	4675.82
822.05	4377.23
822.12	4573.01
822.20	4576.08
822.28	4460.37
822.35	4243.19
822.43	4039.21
822.50	3674.88
822.58	3105.74
822.65	2385.88
822.73	2092.00
822.80	1863.14
822.88	1756.65
822.96	1689.47
823.03	1704.01
823.11	1631.00
823.18	1629.67
823.26	1631.21
823.33	1650.05
823.41	1651.07
823.48	1638.89
823.56	1631.72
823.63	1674.52
823.71	1692.24
823.79	1786.24
823.86	1866.31
823.94	2212.52
824.01	2833.77
824.09	3378.94
824.16	3594.29
824.24	3817.11
824.31	3849.57
824.39	3856.02
824.46	3530.39
824.54	2990.14
824.61	2531.60
824.69	2415.99
824.76	2199.72
824.84	2116.37
824.91	2082.48
824.99	2123.54
825.06	2059.54
825.14	2029.33
825.21	2013.56
825.29	2020.12
825.36	1960.01
825.44	1970.56
825.51	1920.28
825.59	1949.97
825.67	1900.62
825.74	1983.97
825.82	1960.11
825.89	1999.43
825.97	2052.37
826.04	2093.64
826.12	2144.22
826.19	2215.19
826.27	2229.42
826.34	2249.28
826.41	2196.04
826.49	2208.53
826.56	2190.40
826.64	2195.42
826.71	2104.29
826.79	2087.29
826.86	2043.16
826.94	2023.60
827.01	2033.43
827.09	2077.56
827.16	2090.05
827.24	2217.03
827.31	2277.14
827.39	2379.43
827.46	2431.35
827.54	2577.16
827.61	2631.03
827.69	2854.25
827.76	2986.04
827.84	3262.82
827.91	3335.94
827.99	3523.43
828.06	3600.33
828.14	3650.40
828.21	3552.41
828.28	3410.28
828.36	3133.29
828.43	2879.65
828.51	2618.53
828.58	2424.80
828.66	2211.60
828.73	2078.89
828.81	1968.30
828.88	1955.20
828.96	1883.62
829.03	1894.06
829.11	1848.91
829.18	1940.14
829.25	1978.65
829.33	2006.60
829.40	1986.22
829.48	2018.07
829.55	2062.82
829.63	2096.81
829.70	2078.28
829.78	2113.91
829.85	2074.59
829.92	2132.65
830.00	2112.27
830.07	2195.42
830.15	2227.99
830.22	2336.22
830.30	2313.28
830.37	2346.97
830.44	2306.12
830.52	2302.53
830.59	2247.44
830.67	2144.12
830.74	2117.70
830.82	2119.44
830.89	2082.68
830.96	2111.87
831.04	2136.95
831.11	2246.52
831.19	2223.17
831.26	2281.64
831.34	2258.09
831.41	2265.46
831.48	2262.49
831.56	2244.16
831.63	2137.26
831.71	2132.75
831.78	2116.27
831.85	2141.05
831.93	2115.55
832.00	2159.89
832.08	2185.18
832.15	2170.23
832.22	2151.39
832.30	2165.21
832.37	2126.41
832.45	2153.34
832.52	2181.09
832.59	2213.04
832.67	2202.90
832.74	2242.94
832.82	2273.86
832.89	2382.40
832.96	2413.02
833.04	2586.48
833.11	2640.45
833.19	2681.82
833.26	2682.33
833.33	2716.43
833.41	2674.24
833.48	2596.52
833.56	2474.87
833.63	2444.87
833.70	2331.41
833.78	2389.06
833.85	2360.28
833.92	2282.46
834.00	2287.99
834.07	2230.34
834.15	2120.67
834.22	2140.02
834.29	2090.36
834.37	2072.13
834.44	2076.74
834.51	2114.12
834.59	2131.32
834.66	2184.88
834.73	2235.56
834.81	2308.78
834.88	2312.05
834.96	2398.68
835.03	2426.74
835.10	2433.09
835.18	2386.50
835.25	2371.65
835.32	2322.40
835.40	2308.98
835.47	2293.52
835.54	2302.63
835.62	2373.29
835.69	2399.40
835.76	2391.93
835.84	2425.61
835.91	2462.07
835.98	2494.22
836.06	2487.57
836.13	2547.06
836.21	2538.87
836.28	2631.23
836.35	2644.85
836.43	2643.93
836.50	2652.32
836.57	2620.38
836.65	2597.03
836.72	2565.29
836.79	2568.87
836.87	2568.56
836.94	2612.29
837.01	2641.47
837.08	2713.05
837.16	2777.46
837.23	2840.84
837.30	2885.79
837.38	2861.83
837.45	2898.39
837.52	2842.89
837.60	2874.94
837.67	2837.46
837.74	2901.15
837.82	2941.09
837.89	2939.55
837.96	2914.87
838.04	3014.10
838.11	2955.83
838.18	2934.43
838.26	2853.95
838.33	2822.72
838.40	2764.14
838.47	2850.47
838.55	2793.12
838.62	2911.29
838.69	2953.79
838.77	3078.61
838.84	3103.18
838.91	3154.49
838.99	3184.80
839.06	3195.65
839.13	3208.66
839.20	3353.86
839.28	3394.30
839.35	3518.31
839.42	3674.77
839.50	3939.17
839.57	4197.52
839.64	4565.64
839.71	4728.15
839.79	4960.79
839.86	5078.86
839.93	5185.25
840.01	5130.78
840.08	5058.18
840.15	4798.49
840.22	4609.57
840.30	4184.72
840.37	3937.22
840.44	3491.27
840.51	3118.65
840.59	2721.96
840.66	2532.83
840.73	2337.14
840.81	2356.80
840.88	2288.81
840.95	2262.60
841.02	2284.51
841.10	2228.70
841.17	2166.75
841.24	2167.16
841.31	2084.01
841.39	2113.50
841.46	2196.34
841.53	2378.00
841.60	2440.87
841.68	2539.48
841.75	2580.03
841.82	2663.49
841.89	2635.43
841.97	2577.78
842.04	2546.24
842.11	2530.27
842.18	2520.74
842.26	2599.08
842.33	2527.40
842.40	2592.52
842.47	2578.70
842.55	2572.56
842.62	2486.85
842.69	2517.77
842.76	2571.94
842.84	2669.73
842.91	2759.23
842.98	2967.71
843.05	3114.96
843.12	3190.94
843.20	3179.47
843.27	3213.06
843.34	3137.90
843.41	3135.44
843.49	3020.34
843.56	3011.33
843.63	2965.87
843.70	2992.29
843.77	3027.82
843.85	3117.62
843.92	3141.99
843.99	3230.47
844.06	3340.54
844.14	3437.62
844.21	3519.84
844.28	3641.39
844.35	3665.15
844.42	3769.80
844.50	3704.47
844.57	3772.67
844.64	3773.79
844.71	3820.18
844.78	3798.57
844.86	3822.33
844.93	3895.03
845.00	3881.11
845.07	3898.10
845.14	3901.99
845.22	3852.95
845.29	3952.37
845.36	3992.21
845.43	4006.13
845.50	4011.66
845.57	4084.47
845.65	4147.65
845.72	4347.02
845.79	4505.43
845.86	4635.17
845.93	4780.68
846.01	4857.78
846.08	4896.28
846.15	4954.14
846.22	4945.84
846.29	4941.13
846.36	4727.94
846.44	4755.28
846.51	4869.05
846.58	4989.16
846.65	5130.57
846.72	5452.72
846.80	5762.57
846.87	6153.12
846.94	6553.40
847.01	6827.31
847.08	7099.49
847.15	7301.52
847.22	7258.51
847.30	7237.11
847.37	7046.24
847.44	6933.81
847.51	6617.29
847.58	6425.71
847.65	6132.44
847.73	6124.14
847.80	6059.84
847.87	6025.12
847.94	5923.85
848.01	5968.91
848.08	6038.23
848.15	6087.38
848.23	6075.71
848.30	6076.32
848.37	5919.04
848.44	5980.58
848.51	5884.43
848.58	5911.97
848.65	5828.21
848.73	5880.74
848.80	5849.82
848.87	6054.82
848.94	6107.55
849.01	6285.42
849.08	6213.23
849.15	6353.00
849.23	6291.56
849.30	6320.75
849.37	6180.77
849.44	6211.80
849.51	6027.38
849.58	5850.84
849.65	5670.83
849.72	5694.07
849.79	5667.45
849.87	5648.71
849.94	5625.16
850.01	5681.99
850.08	5740.05
850.15	5939.01
850.22	5995.33
850.29	6111.86
850.36	6108.17
850.44	6299.76
850.51	6333.55
850.58	6417.11
850.65	6380.45
850.72	6432.98
850.79	6541.93
850.86	6801.41
850.93	7034.57
851.00	7152.63
851.07	7023.61
851.15	7019.92
851.22	6837.14
851.29	6811.75
851.36	6521.14
851.43	6322.80
851.50	6164.49
851.57	6368.77
851.64	6330.27
851.71	6360.89
851.78	6532.00
851.85	6962.17
851.92	7204.75
852.00	7574.92
852.07	7652.44
852.14	7850.07
852.21	7963.01
852.28	7958.10
852.35	7690.33
852.42	7531.30
852.49	7162.87
852.56	6869.91
852.63	6676.48
852.70	6702.39
852.77	6701.67
852.84	6697.98
852.92	6693.17
852.99	6602.96
853.06	6663.27
853.13	6792.50
853.20	6930.84
853.27	7169.43
853.34	7434.54
853.41	7763.85
853.48	7914.89
853.55	8160.64
853.62	8346.09
853.69	8530.40
853.76	8557.74
853.83	8264.89
853.90	8087.12
853.97	7918.88
854.04	7608.10
854.11	7209.05
854.18	6718.46
854.26	6335.08
854.33	5765.75
854.40	5487.94
854.47	5105.48
854.54	4920.96
854.61	4690.46
854.68	4570.76
854.75	4537.89
854.82	4598.00
854.89	4717.91
854.96	5014.66
855.03	5226.11
855.10	5700.83
855.17	6273.75
855.24	6972.41
855.31	7628.58
855.38	7834.81
855.45	7698.52
855.52	7688.38
855.59	7463.62
855.66	7244.59
855.73	6754.61
855.80	6185.28
855.87	5707.79
855.94	5480.06
856.01	5312.74
856.08	5072.92
856.15	4731.52
856.22	4421.26
856.29	4113.45
856.36	3988.52
856.43	3822.43
856.50	3838.92
856.57	3699.66
856.64	3812.70
856.71	3807.38
856.78	3959.54
856.85	3885.20
856.92	3768.77
856.99	3534.28
857.06	3343.41
857.13	3194.93
857.20	3083.11
857.27	3028.02
857.34	3067.14
857.41	3155.41
857.48	3310.85
857.55	3458.92
857.62	3547.29
857.69	3531.11
857.76	3578.21
857.83	3444.27
857.90	3338.29
857.97	3178.45
858.04	3131.04
858.11	3158.79
858.18	3372.49
858.25	3541.14
858.32	3628.59
858.39	3624.29
858.46	3716.76
858.53	3669.24
858.60	3621.01
858.67	3427.07
858.74	3311.26
858.81	3298.36
858.88	3646.51
858.95	3991.49
859.02	4380.30
859.09	4799.31
859.16	5153.82
859.23	5333.93
859.29	5540.68
859.36	5392.40
859.43	5224.27
859.50	5013.63
859.57	4926.39
859.64	4846.31
859.71	4861.06
859.78	4812.83
859.85	4832.69
859.92	4801.46
859.99	4670.39
860.06	4465.60
860.13	4368.21
860.20	4264.28
860.27	4453.10
860.34	4555.40
860.41	4869.86
860.48	5154.94
860.54	5408.28
860.61	5373.67
860.68	5549.07
860.75	5373.26
860.82	5393.74
860.89	5344.58
860.96	5289.70
861.03	5256.62
861.10	5417.08
861.17	5389.64
861.24	5484.26
861.31	5488.04
861.38	5592.08
861.45	5528.18
861.51	5617.99
861.58	5729.09
861.65	5926.10
861.72	6069.05
861.79	6308.67
861.86	6374.71
861.93	6430.42
862.00	6460.11
862.07	6549.92
862.14	6555.75
862.21	6686.31
862.27	6800.49
862.34	6915.48
862.41	7109.32
862.48	7673.64
862.55	8223.52
862.62	8974.30
862.69	9203.37
862.76	9635.08
862.83	9917.90
862.90	10294.22
862.96	10108.36
863.03	9990.91
863.10	9548.24
863.17	9379.59
863.24	9242.38
863.31	9432.84
863.38	9320.10
863.45	9399.77
863.52	9444.52
863.58	9569.13
863.65	9555.00
863.72	9495.71
863.79	9330.65
863.86	9340.79
863.93	9309.66
864.00	9126.47
864.07	9045.98
864.13	9196.30
864.20	9405.91
864.27	9861.48
864.34	9990.91
864.41	10397.64
864.48	10540.90
864.55	11007.32
864.62	11050.02
864.68	11115.15
864.75	11106.65
864.82	11238.13
864.89	11209.56
864.96	11194.81
865.03	11339.50
865.10	11687.86
865.16	12073.19
865.23	12345.67
865.30	12587.43
865.37	12910.39
865.44	13279.44
865.51	13642.24
865.58	13823.28
865.64	13783.65
865.71	13832.29
865.78	14115.22
865.85	14168.16
865.92	14132.21
865.99	13992.64
866.05	13914.82
866.12	13713.51
866.19	13838.64
866.26	13771.87
866.33	13844.17
866.40	13357.98
866.46	13472.46
866.53	13475.33
866.60	14036.16
866.67	14126.38
866.74	14300.56
866.81	14170.10
866.87	14418.11
866.94	14439.31
867.01	14635.19
867.08	14298.92
867.15	14267.48
867.21	13852.97
867.28	13400.17
867.35	12980.44
867.42	12754.95
867.49	12816.60
867.56	13540.35
867.62	14591.27
867.69	15975.39
867.76	16729.45
867.83	17829.00
867.90	19059.52
867.96	20781.97
868.03	21741.65
868.10	22322.14
868.17	21348.54
868.24	21413.87
868.30	21226.48
868.37	21797.35
868.44	21011.14
868.51	19931.45
868.58	19260.22
868.64	19002.08
868.71	18751.30
868.78	18327.78
868.85	17612.74
868.92	16912.23
868.98	16112.80
869.05	15515.92
869.12	14853.61
869.19	14008.41
869.25	12942.34
869.32	12211.32
869.39	11691.65
869.46	11654.58
869.53	11381.48
869.59	11389.57
869.66	11380.97
869.73	11747.66
869.80	12335.02
869.86	13173.56
869.93	13765.42
870.00	14500.13
870.07	14770.97
870.14	15086.16
870.20	14934.91
870.27	14724.18
870.34	14095.96
870.41	13408.46
870.47	12336.45
870.54	11820.36
870.61	11376.67
870.68	11322.50
870.74	11246.63
870.81	11264.54
870.88	11043.98
870.95	10930.32
871.01	10931.34
871.08	10840.31
871.15	10704.02
871.22	10634.59
871.28	10396.10
871.35	10387.60
871.42	10528.40
871.49	10918.23
871.55	11121.19
871.62	11571.23
871.69	11823.74
871.76	12173.13
871.82	12283.72
871.89	12524.56
871.96	12183.88
872.02	11931.88
872.09	11255.64
872.16	10875.23
872.23	10116.04
872.29	9509.44
872.36	8654.41
872.43	8180.30
872.50	7534.89
872.56	7208.95
872.63	6757.48
872.70	6420.28
872.76	6014.58
872.83	5830.67
872.90	5504.53
872.97	5380.83
873.03	5360.97
873.10	5356.87
873.17	5370.29
873.23	5426.09
873.30	5380.12
873.37	5498.39
873.44	5339.77
873.50	5309.77
873.57	5063.40
873.64	5025.72
873.70	4924.96
873.77	5000.01
873.84	4930.59
873.91	5046.71
873.97	5110.71
874.04	5270.04
874.11	5420.77
874.17	5645.74
874.24	5653.72
874.31	5691.20
874.37	5496.75
874.44	5412.78
874.51	5261.03
874.57	5152.48
874.64	4944.51
874.71	4823.07
874.77	4622.68
874.84	4597.59
874.91	4518.43
874.98	4487.61
875.04	4352.14
875.11	4227.31
875.18	3918.79
875.24	3738.46
875.31	3530.70
875.38	3497.32
875.44	3433.32
875.51	3493.94
875.58	3487.90
875.64	3586.20
875.71	3668.83
875.78	3844.45
875.84	3920.63
875.91	3940.60
875.98	3828.47
876.04	3765.29
876.11	3674.47
876.18	3645.90
876.24	3596.54
876.31	3678.87
876.37	3715.02
876.44	3942.75
876.51	4033.58
876.57	4175.40
876.64	4108.33
876.71	4109.86
876.77	3997.43
876.84	3924.83
876.91	3693.92
876.97	3634.12
877.04	3565.10
877.11	3693.72
877.17	3812.50
877.24	4091.12
877.31	4298.58
877.37	4383.47
877.44	4443.27
877.50	4558.88
877.57	4518.84
877.64	4530.31
877.70	4341.69
877.77	4238.89
877.84	4195.37
877.90	4364.32
877.97	4458.43
878.03	4671.62
878.10	4663.94
878.17	4742.07
878.23	4720.26
878.30	4730.91
878.37	4648.38
878.43	4610.28
878.50	4464.16
878.56	4446.65
878.63	4522.94
878.70	4699.17
878.76	4790.30
878.83	5092.99
878.89	5275.47
878.96	5441.66
879.03	5478.62
879.09	5521.94
879.16	5418.62
879.22	5403.26
879.29	5366.80
879.36	5520.09
879.42	5472.99
879.49	5547.03
879.55	5657.31
879.62	5749.06
879.69	5734.93
879.75	5798.31
879.82	5792.88
879.88	5786.84
879.95	5722.13
880.02	5786.64
880.08	5887.19
880.15	6096.80
880.21	6138.79
880.28	6339.18
880.34	6421.30
880.41	6552.17
880.48	6464.21
880.54	6608.39
880.61	6600.30
880.67	6757.78
880.74	6812.47
880.80	6936.27
880.87	6912.30
880.94	6921.72
881.00	7034.57
881.07	7195.64
881.13	7195.03
881.20	7224.00
881.26	7212.74
881.33	7296.71
881.40	7405.86
881.46	7405.25
881.53	7386.82
881.59	7431.16
881.66	7446.21
881.72	7648.34
881.79	7726.47
881.85	8061.73
881.92	8002.23
881.99	8425.86
882.05	8461.59
882.12	8677.55
882.18	8762.75
882.25	8861.36
882.31	8871.60
882.38	8963.65
882.44	8869.75
882.51	9031.75
882.57	8899.96
882.64	8999.59
882.71	9000.11
882.77	9147.25
882.84	9226.51
882.90	9609.17
882.97	9706.86
883.03	10035.87
883.10	10237.49
883.16	10443.41
883.23	10514.68
883.29	10798.53
883.36	10607.97
883.42	10589.02
883.49	10498.09
883.55	10763.30
883.62	10648.11
883.68	10692.34
883.75	10525.84
883.81	10809.38
883.88	10876.76
883.94	11142.08
884.01	11247.85
884.07	11383.53
884.14	11332.64
884.20	11626.01
884.27	11793.13
884.34	11946.83
884.40	11944.57
884.47	12079.84
884.53	12071.85
884.60	12272.25
884.66	12265.69
884.73	12346.18
884.79	12153.36
884.86	12152.75
884.92	12032.12
884.98	11970.38
885.05	11926.65
885.11	11925.12
885.18	11843.81
885.24	11977.65
885.31	11752.37
885.37	11985.94
885.44	11975.50
885.50	12344.64
885.57	12435.47
885.63	12442.13
885.70	12603.10
885.76	12696.59
885.83	12680.00
885.89	12906.30
885.96	12676.93
886.02	12569.92
886.09	12163.30
886.15	11975.70
886.22	11593.14
886.28	11404.32
886.35	10991.24
886.41	10740.37
886.47	10368.15
886.54	10174.00
886.60	9756.83
886.67	9737.58
886.73	9417.99
886.80	9395.67
886.86	9325.32
886.93	9390.35
886.99	9319.38
887.06	9402.84
887.12	9364.64
887.19	9431.61
887.25	9341.71
887.31	9508.62
887.38	9471.04
887.44	9673.99
887.51	9611.94
887.57	9783.45
887.64	9784.99
887.70	10071.60
887.77	10114.41
887.83	10571.82
887.89	10477.41
887.96	10559.84
888.02	10442.70
888.09	10404.09
888.15	10175.84
888.22	10073.24
888.28	9812.54
888.34	9696.82
888.41	9230.40
888.47	9177.87
888.54	9009.83
888.60	8933.75
888.67	8823.78
888.73	8894.23
888.79	8861.56
888.86	9095.85
888.92	9126.06
888.99	9526.54
889.05	9590.23
889.11	9954.15
889.18	9969.92
889.24	10168.16
889.31	9963.88
889.37	9953.95
889.44	9603.03
889.50	9314.47
889.56	8848.86
>>>>>End Processed Spectral Data<<<<<
