SpectraSuite Data File
++++++++++++++++++++++++++++++++++++
Date: Wed Jul 12 17:03:08 CDT 2017
User: Owner
Dark Spectrum Present: Yes
Reference Spectrum Present: Yes
Number of Sampled Component Spectra: 1
Spectrometers: USB4H04489
Integration Time (usec): 35000 (USB4H04489)
Spectra Averaged: 20 (USB4H04489)
Boxcar Smoothing: 0 (USB4H04489)
Correct for Electrical Dark: No (USB4H04489)
Strobe/Lamp Enabled: No (USB4H04489)
Correct for Detector Non-linearity: No (USB4H04489)
Correct for Stray Light: No (USB4H04489)
Number of Pixels in Processed Spectrum: 3648
>>>>>Begin Processed Spectral Data<<<<<
580.28	2.97
580.38	2.97
580.48	2.97
580.59	-2.87
580.69	-40.34
580.79	7.68
580.90	5.32
581.00	-10.65
581.11	-15.67
581.21	-3.69
581.31	1.43
581.42	35.84
581.52	4.71
581.62	-9.93
581.73	13.31
581.83	31.74
581.93	36.04
582.04	153.90
582.14	7913.15
582.25	12382.43
582.35	12572.68
582.45	12796.63
582.56	13161.37
582.66	13446.96
582.76	13945.44
582.87	14319.91
582.97	14719.26
583.07	14572.73
583.18	15178.52
583.28	15159.99
583.38	15258.19
583.49	15038.75
583.59	15072.64
583.70	14545.49
583.80	14134.16
583.90	13849.29
584.01	13875.81
584.11	13818.87
584.21	14301.38
584.32	14283.05
584.42	14741.18
584.52	14654.75
584.63	14800.16
584.73	14660.90
584.83	14962.66
584.94	14742.41
585.04	14435.31
585.14	14074.26
585.25	13590.83
585.35	12969.58
585.45	12800.62
585.56	12496.91
585.66	13032.56
585.76	12670.17
585.87	12073.80
585.97	11238.64
586.07	10476.69
586.18	9783.97
586.28	9559.82
586.38	9728.47
586.49	10330.36
586.59	10675.14
586.69	11030.26
586.80	11196.45
586.90	11856.51
587.00	11977.65
587.11	12368.30
587.21	12565.82
587.31	12849.06
587.41	13155.74
587.52	13631.18
587.62	13829.63
587.72	14223.96
587.83	14637.55
587.93	15194.49
588.03	15551.87
588.14	15621.60
588.24	15809.81
588.34	16171.07
588.45	16084.64
588.55	16342.79
588.65	16183.46
588.75	15813.08
588.86	15441.27
588.96	15163.57
589.06	14696.74
589.17	15069.98
589.27	15127.42
589.37	15437.79
589.48	15841.04
589.58	16044.91
589.68	16164.92
589.78	16406.69
589.89	16126.73
589.99	16508.88
590.09	16549.33
590.20	16010.30
590.30	15579.00
590.40	15129.47
590.50	14388.72
590.61	14143.17
590.71	14121.26
590.81	14834.67
590.92	14578.16
591.02	14089.62
591.12	13106.18
591.22	12055.16
591.33	10969.43
591.43	10700.53
591.53	10417.91
591.64	10695.82
591.74	11132.45
591.84	11623.86
591.94	11840.84
592.05	12065.30
592.15	12425.74
592.25	12946.44
592.35	12957.50
592.46	13433.24
592.56	13554.58
592.66	14214.54
592.76	14510.47
592.87	14798.62
592.97	14882.49
593.07	15537.73
593.18	15323.21
593.28	15460.63
593.38	15379.73
593.48	15467.28
593.59	15458.58
593.69	15961.25
593.79	15834.59
593.89	15702.70
594.00	15300.68
594.10	15010.69
594.20	14529.52
594.30	14489.58
594.41	14488.76
594.51	14743.94
594.61	14833.74
594.71	15360.38
594.82	15757.89
594.92	15918.04
595.02	16046.24
595.12	16079.83
595.23	16279.51
595.33	16287.60
595.43	16156.73
595.53	15850.46
595.64	15286.04
595.74	14797.80
595.84	14043.54
595.94	13940.73
596.04	13877.96
596.15	13754.57
596.25	12619.89
596.35	11825.28
596.45	10465.63
596.56	9346.01
596.66	8652.77
596.76	8734.48
596.86	8874.36
596.97	9231.83
597.07	9475.13
597.17	9824.31
597.27	10047.85
597.37	10540.79
597.48	10604.89
597.58	11046.23
597.68	10994.52
597.78	11562.22
597.89	11658.88
597.99	12066.84
598.09	12279.72
598.19	12670.68
598.29	13001.12
598.40	13482.50
598.50	14012.71
598.60	14178.09
598.70	14451.39
598.80	14743.12
598.91	14915.46
599.01	15028.30
599.11	15125.07
599.21	15595.49
599.31	14821.56
599.42	14494.29
599.52	14200.82
599.62	13802.08
599.72	13434.27
599.82	13489.87
599.93	13799.83
600.03	14119.21
600.13	14411.86
600.23	14697.55
600.33	14809.27
600.44	14936.96
600.54	14890.78
600.64	15124.25
600.74	14914.64
600.84	15104.59
600.95	14413.40
601.05	13949.43
601.15	13148.88
601.25	12754.95
601.35	12252.79
601.46	12667.61
601.56	12508.58
601.66	12355.19
601.76	11049.51
601.86	10297.19
601.96	8913.68
602.07	7971.10
602.17	7631.96
602.27	7793.55
602.37	7944.28
602.47	8224.23
602.57	8491.39
602.68	8694.55
602.78	8758.34
602.88	9112.54
602.98	9280.58
603.08	9373.14
603.18	9472.88
603.29	9796.66
603.39	9784.89
603.49	10048.26
603.59	10010.06
603.69	10373.58
603.79	10578.48
603.90	10909.43
604.00	11012.24
604.10	11463.40
604.20	11677.21
604.30	11788.11
604.40	11713.36
604.51	11814.83
604.61	11815.04
604.71	12168.62
604.81	11802.55
604.91	11725.03
605.01	11205.15
605.11	10995.54
605.22	10317.97
605.32	10530.96
605.42	10444.74
605.52	10747.64
605.62	10860.99
605.72	11064.97
605.83	10913.52
605.93	11456.44
606.03	11364.38
606.13	11499.45
606.23	11428.79
606.33	11556.07
606.43	11286.87
606.53	10922.23
606.64	10136.52
606.74	9923.84
606.84	9144.69
606.94	9047.62
607.04	9063.18
607.14	9443.39
607.24	9073.53
607.35	8198.53
607.45	7308.79
607.55	6355.56
607.65	5240.96
607.75	4837.40
607.85	4954.96
607.95	5087.77
608.05	5136.61
608.16	5330.56
608.26	5328.20
608.36	5452.92
608.46	5456.40
608.56	5563.72
608.66	5525.32
608.76	5627.20
608.86	5624.95
608.96	5729.50
609.07	5653.32
609.17	5755.20
609.27	5745.47
609.37	5874.09
609.47	6013.25
609.57	6222.04
609.67	6306.72
609.77	6496.98
609.87	6558.52
609.98	6675.76
610.08	6670.85
610.18	6790.86
610.28	6897.15
610.38	6971.80
610.48	6999.04
610.58	6886.19
610.68	6617.70
610.78	6582.68
610.88	6370.10
610.98	6215.59
611.09	6284.29
611.19	6601.42
611.29	6517.97
611.39	6686.31
611.49	6802.64
611.59	6927.05
611.69	7063.44
611.79	7214.28
611.89	7220.32
611.99	7274.59
612.09	7395.32
612.20	7375.04
612.30	7140.04
612.40	7003.34
612.50	6733.93
612.60	6524.42
612.70	6405.02
612.80	6594.25
612.90	6830.59
613.00	6670.34
613.10	6321.26
613.20	5903.68
613.30	5360.05
613.40	4865.56
613.50	4700.29
613.61	4763.78
613.71	4900.28
613.81	5011.79
613.91	5179.62
614.01	5341.72
614.11	5401.31
614.21	5486.92
614.31	5609.59
614.41	5706.15
614.51	5854.63
614.61	5979.56
614.71	6079.91
614.81	6251.94
614.91	6323.62
615.01	6285.22
615.11	6382.90
615.22	6589.03
615.32	6633.17
615.42	6794.96
615.52	6928.69
615.62	7010.40
615.72	6947.94
615.82	7084.33
615.92	7083.31
616.02	7207.01
616.12	7073.68
616.22	7124.58
616.32	7031.70
616.42	6914.04
616.52	6785.33
616.62	6516.94
616.72	6566.71
616.82	6543.16
616.92	6479.47
617.02	6698.91
617.12	6679.96
617.22	6820.45
617.32	6576.85
617.42	6525.14
617.52	6565.38
617.62	6738.23
617.72	6612.99
617.83	6684.47
617.93	6631.94
618.03	6533.84
618.13	6262.28
618.23	6068.54
618.33	5936.65
618.43	5979.76
618.53	5841.63
618.63	5897.54
618.73	5847.67
618.83	5815.41
618.93	5540.06
619.03	5277.82
619.13	4916.25
619.23	4693.64
619.33	4570.55
619.43	4567.79
619.53	4595.44
619.63	4668.65
619.73	4836.28
619.83	4784.16
619.93	4801.97
620.03	4954.24
620.13	4954.45
620.23	4978.71
620.33	4932.84
620.43	5212.39
620.53	5166.62
620.63	5483.13
620.73	5607.85
620.83	5781.31
620.93	5955.39
621.03	6152.61
621.13	6229.31
621.23	6438.92
621.33	6434.72
621.43	6605.62
621.53	6626.92
621.63	6862.64
621.73	7151.81
621.83	7335.31
621.93	7472.94
622.03	7816.58
622.13	8010.02
622.23	8222.18
622.33	8250.24
622.43	8576.79
622.53	8416.64
622.63	8538.49
622.73	8607.61
622.83	8612.63
622.93	8584.78
623.03	8560.10
623.13	8347.32
623.23	8448.08
623.33	8327.66
623.42	8543.20
623.52	8677.24
623.62	8978.50
623.72	9039.73
623.82	8951.47
623.92	8875.69
624.02	8544.13
624.12	8130.03
624.22	7901.58
624.32	7943.35
624.42	8110.26
624.52	7962.30
624.62	8016.67
624.72	7804.30
624.82	7620.90
624.92	7235.58
625.02	7179.67
625.12	7335.21
625.22	7523.73
625.32	7626.74
625.42	7969.47
625.52	7858.47
625.62	7699.75
625.72	7424.50
625.82	7390.10
625.91	7230.25
626.01	7424.19
626.11	7666.67
626.21	8058.55
626.31	8234.06
626.41	8606.90
626.51	8642.63
626.61	9025.60
626.71	9156.78
626.81	9293.17
626.91	9428.34
627.01	9810.90
627.11	10034.64
627.21	10511.51
627.31	11032.92
627.41	11706.39
627.51	11814.94
627.60	11728.82
627.70	11338.07
627.80	10971.28
627.90	10189.36
628.00	9823.90
628.10	9919.03
628.20	10376.34
628.30	10652.10
628.40	10970.05
628.50	11408.72
628.60	11932.08
628.70	12162.78
628.80	12785.67
628.89	12900.56
628.99	13515.16
629.09	13809.86
629.19	14380.84
629.29	14647.38
629.39	15095.27
629.49	15225.73
629.59	15534.66
629.69	15505.27
629.79	15662.56
629.89	15534.66
629.98	15655.90
630.08	15334.88
630.18	15449.26
630.28	15433.08
630.38	15848.00
630.48	16089.15
630.58	16644.87
630.68	17164.54
630.78	17627.58
630.88	17853.99
630.98	18127.70
631.07	18177.05
631.17	18408.68
631.27	18608.25
631.37	19188.65
631.47	19349.41
631.57	19545.40
631.67	19704.84
631.77	20083.92
631.87	20189.08
631.96	20723.29
632.06	21369.22
632.16	21090.29
632.26	19814.81
632.36	18182.17
632.46	15545.11
632.56	12825.40
632.66	10485.40
632.75	9457.52
632.85	8510.44
632.95	8170.99
633.05	8358.89
633.15	8448.69
633.25	8340.15
633.35	8641.30
633.45	8660.35
633.55	8786.71
633.64	8880.81
633.74	8829.00
633.84	8865.55
633.94	8959.97
634.04	8861.46
634.14	8884.19
634.24	8879.58
634.33	9244.33
634.43	9240.74
634.53	9700.72
634.63	10020.81
634.73	10263.09
634.83	10621.07
634.93	11063.95
635.02	11355.17
635.12	11965.97
635.22	12036.01
635.32	12762.02
635.42	12900.36
635.52	13478.09
635.62	13917.69
635.71	14415.75
635.81	14710.46
635.91	15201.87
636.01	15522.07
636.11	15974.46
636.21	16140.35
636.31	16661.04
636.40	16480.62
636.50	16700.57
636.60	16541.85
636.70	16856.52
636.80	16700.37
636.90	16911.20
636.99	16361.94
637.09	16101.13
637.19	15578.08
637.29	15225.11
637.39	14677.89
637.49	15158.25
637.58	15332.53
637.68	15824.24
637.78	16155.81
637.88	16573.19
637.98	16380.37
638.08	16775.22
638.17	16425.63
638.27	16207.42
638.37	16011.12
638.47	16369.62
638.57	16456.76
638.66	16403.51
638.76	15815.75
638.86	15435.54
638.96	14517.03
639.06	13574.96
639.16	13543.01
639.25	13790.61
639.35	13828.29
639.45	14493.78
639.55	14436.23
639.65	13986.30
639.74	12704.06
639.84	11826.71
639.94	10934.00
640.04	9966.54
640.14	9501.04
640.23	10063.00
640.33	10112.56
640.43	10555.85
640.53	10578.88
640.63	11088.62
640.73	10984.38
640.82	11338.48
640.92	11412.82
641.02	11491.56
641.12	11179.25
641.21	11474.56
641.31	11341.75
641.41	11486.85
641.51	11794.66
641.61	12275.73
641.70	12491.69
641.80	13358.49
641.90	13573.83
642.00	14332.61
642.10	14725.71
642.19	15650.07
642.29	15885.48
642.39	16998.96
642.49	17507.16
642.59	18407.04
642.68	18893.74
642.78	19722.86
642.88	20781.05
642.98	21461.48
643.07	22113.45
643.17	22929.26
643.27	23418.22
643.37	24617.51
643.46	24395.92
643.56	25359.59
643.66	25633.61
643.76	25679.99
643.86	25811.27
643.95	26270.52
644.05	26236.94
644.15	26808.42
644.25	26622.06
644.34	25888.68
644.44	25031.50
644.54	24527.70
644.64	23720.50
644.73	23965.33
644.83	23548.57
644.93	24492.27
645.03	24971.60
645.12	25449.80
645.22	25962.61
645.32	26651.24
645.42	26425.35
645.51	26269.60
645.61	25620.40
645.71	25922.37
645.81	26176.42
645.90	26812.21
646.00	26687.70
646.10	26319.68
646.20	25398.40
646.29	24298.64
646.39	22565.95
646.49	21797.45
646.59	22006.04
646.68	22478.20
646.78	23461.94
646.88	23949.15
646.98	23619.02
647.07	22107.52
647.17	20007.02
647.27	18558.08
647.37	16843.21
647.46	15601.73
647.56	15378.61
647.66	15934.32
647.75	16060.07
647.85	16540.73
647.95	17258.13
648.05	17501.12
648.14	17644.38
648.24	18328.81
648.34	18401.51
648.44	18912.27
648.53	18711.37
648.63	18826.36
648.73	18530.94
648.82	18527.56
648.92	18259.79
649.02	18551.83
649.12	18877.66
649.21	19372.45
649.31	20170.96
649.41	21020.25
649.50	21748.81
649.60	22898.03
649.70	23586.76
649.80	24537.12
649.89	25348.32
649.99	26652.88
650.09	27356.87
650.18	28537.11
650.28	29573.69
650.38	30911.22
650.47	32013.54
650.57	33358.54
650.67	34059.77
650.77	35144.99
650.86	36030.63
650.96	37068.75
651.06	37339.08
651.15	38271.01
651.25	38411.29
651.35	38764.98
651.44	38874.03
651.54	39772.68
651.64	39120.30
651.73	39847.33
651.83	38912.02
651.93	38450.41
652.03	36296.35
652.12	35457.92
652.22	34518.41
652.32	34768.47
652.41	34743.48
652.51	36035.65
652.61	36654.54
652.70	37784.10
652.80	37877.08
652.90	39237.24
652.99	38792.11
653.09	39164.94
653.19	37834.28
653.28	38245.71
653.38	38523.93
653.48	38953.59
653.57	39320.80
653.67	39358.48
653.77	37978.04
653.86	35749.96
653.96	33571.94
654.06	31496.74
654.15	30741.03
654.25	31250.47
654.35	32185.67
654.44	33382.20
654.54	33690.31
654.64	32370.09
654.73	28999.75
654.83	26093.27
654.93	23121.87
655.02	20785.76
655.12	18896.20
655.22	19042.12
655.31	19741.60
655.41	20422.86
655.51	20239.77
655.60	21161.15
655.70	21675.09
655.79	21861.76
655.89	21935.59
655.99	22370.68
656.08	22435.60
656.18	22305.04
656.28	21975.93
656.37	22271.76
656.47	21803.60
656.57	22390.54
656.66	22244.01
656.76	23083.37
656.85	23691.72
656.95	24668.19
657.05	25531.10
657.14	26568.09
657.24	27456.91
657.34	28701.16
657.43	29487.27
657.53	30812.82
657.63	31531.96
657.72	32893.35
657.82	33895.73
657.91	35117.24
658.01	36696.53
658.11	38256.98
658.20	39824.70
658.30	41038.73
658.39	42163.99
658.49	43982.89
658.59	44951.69
658.68	46479.98
658.78	47306.44
658.88	48016.68
658.97	47881.61
659.07	48723.22
659.16	48538.91
659.26	49103.53
659.36	49149.10
659.45	49587.36
659.55	49170.50
659.64	48906.62
659.74	46544.80
659.84	45738.31
659.93	43362.56
660.03	43040.32
660.12	42505.59
660.22	43482.78
660.32	44097.38
660.41	45582.25
660.51	46424.17
660.60	47390.61
660.70	47927.79
660.80	48842.01
660.89	48198.13
660.99	47970.70
661.08	47366.04
661.18	48464.57
661.28	48609.97
661.37	49088.38
661.47	48985.57
661.56	47917.76
661.66	45773.74
661.75	42822.31
661.85	39806.57
661.95	38474.47
662.04	38434.84
662.14	39673.66
662.23	41184.75
662.33	42203.11
662.43	41565.16
662.52	39009.50
662.62	34733.96
662.71	31070.86
662.81	26629.64
662.90	23557.07
663.00	21748.81
663.10	22058.67
663.19	22500.62
663.29	23348.69
663.38	23359.64
663.48	24141.87
663.57	24644.23
663.67	25174.66
663.77	24857.63
663.86	25062.63
663.96	25218.28
664.05	25099.91
664.15	24563.64
664.24	24693.59
664.34	24115.34
664.43	23953.66
664.53	23765.24
664.63	24063.02
664.72	24170.43
664.82	25029.97
664.91	25202.82
665.01	26431.60
665.10	26987.11
665.20	28553.50
665.29	29146.18
665.39	30430.67
665.48	31336.17
665.58	32387.09
665.68	33359.98
665.77	34291.19
665.87	35356.23
665.96	36903.78
666.06	37820.35
666.15	39815.38
666.25	40329.22
666.34	41297.80
666.44	42339.60
666.53	44401.40
666.63	44839.87
666.72	45865.80
666.82	46767.11
666.91	47564.07
667.01	47717.98
667.11	47801.64
667.20	47978.38
667.30	48146.21
667.39	48561.95
667.49	49025.40
667.58	48238.88
667.68	47980.84
667.77	45841.63
667.87	44840.28
667.96	42433.81
668.06	41481.10
668.15	41308.96
668.25	41728.08
668.34	42144.74
668.44	43133.91
668.53	43698.84
668.63	44673.37
668.72	45256.94
668.82	45723.26
668.91	46379.22
669.01	46002.50
669.10	44841.09
669.20	45909.62
669.29	45660.49
669.39	46197.87
669.48	46651.70
669.58	46939.24
669.67	45200.41
669.77	42759.03
669.86	39813.02
669.96	37755.84
670.05	35515.57
670.15	36569.76
670.24	37237.29
670.34	39296.32
670.43	40160.05
670.53	40650.34
670.62	38047.47
670.72	34518.82
670.81	30212.86
670.91	26414.09
671.00	22741.77
671.10	21342.39
671.19	21024.65
671.29	21757.93
671.38	22339.96
671.48	22833.73
671.57	23169.80
671.67	23923.86
671.76	24482.24
671.86	25378.22
671.95	24844.52
672.04	25775.53
672.14	25908.34
672.23	26037.26
672.33	25769.59
672.42	25910.08
672.52	25968.14
672.61	26045.14
672.71	25753.10
672.80	26342.61
672.90	26677.97
672.99	27419.43
673.09	27924.16
673.18	29199.53
673.28	29850.89
673.37	31631.39
673.46	32860.58
673.56	34598.28
673.65	35615.92
673.75	37356.28
673.84	38454.91
673.94	40546.81
674.03	42355.68
674.13	45003.19
674.22	47732.72
674.32	51241.71
674.41	51829.38
674.50	51843.41
674.60	49863.94
674.69	47722.18
674.79	43858.99
674.88	40555.72
674.98	37627.13
675.07	37368.26
675.17	36627.51
675.26	36439.30
675.35	36083.88
675.45	36532.90
675.54	36178.08
675.64	36878.69
675.73	36548.87
675.83	37125.58
675.92	36846.03
676.01	35705.00
676.11	34122.74
676.20	32743.74
676.30	31054.58
676.39	30786.40
676.49	30369.23
676.58	30685.13
676.67	30920.44
676.77	32084.81
676.86	32212.40
676.96	32833.55
677.05	33182.73
677.15	34104.31
677.24	34214.59
677.33	34256.99
677.43	33661.64
677.52	33863.37
677.62	33975.90
677.71	34477.35
677.80	34499.06
677.90	35171.20
677.99	33238.64
678.09	31810.59
678.18	29744.39
678.27	27205.73
678.37	25212.13
678.46	24892.75
678.56	25638.93
678.65	26563.79
678.74	27679.83
678.84	28999.85
678.93	27425.27
679.03	25627.77
679.12	22148.17
679.21	18743.73
679.31	15118.51
679.40	12555.07
679.50	11260.04
679.59	11173.21
679.68	11192.15
679.78	11630.62
679.87	11468.73
679.97	11830.30
680.06	12004.78
680.15	12263.24
680.25	12229.45
680.34	12253.92
680.44	12043.80
680.53	11961.98
680.62	11508.25
680.72	11139.52
680.81	10697.46
680.90	10491.44
681.00	9869.78
681.09	9666.21
681.19	9210.33
681.28	9075.88
681.37	8961.40
681.47	9103.94
681.56	9091.45
681.65	9340.68
681.75	9464.59
681.84	9816.73
681.94	10128.64
682.03	10420.68
682.12	10689.68
682.22	10939.84
682.31	11212.12
682.40	11520.95
682.50	11880.37
682.59	12424.00
682.68	12644.47
682.78	13253.53
682.87	13623.29
682.96	14195.09
683.06	14399.47
683.15	14823.20
683.25	15349.12
683.34	15776.32
683.43	15980.61
683.53	16347.60
683.62	16747.57
683.71	17093.99
683.81	17102.69
683.90	17331.04
683.99	17120.81
684.09	17395.14
684.18	17558.67
684.27	17660.15
684.37	17630.45
684.46	17590.52
684.55	17180.00
684.65	16474.17
684.74	15718.88
684.83	15186.10
684.93	14387.90
685.02	14406.44
685.11	14178.09
685.21	14623.93
685.30	14820.02
685.39	15261.36
685.49	15482.75
685.58	15836.02
685.67	15819.33
685.77	16341.36
685.86	16449.39
685.95	16294.87
686.05	16092.53
686.14	16239.98
686.23	15880.05
686.33	16148.13
686.42	16180.28
686.51	16278.28
686.61	15896.85
686.70	15155.69
686.79	14194.47
686.88	13211.45
686.98	12086.50
687.07	11682.84
687.16	11703.02
687.26	12240.30
687.35	12621.84
687.44	13236.33
687.54	13062.56
687.63	12564.60
687.72	11211.71
687.82	9764.61
687.91	8052.20
688.00	6639.00
688.09	5850.43
688.19	5469.82
688.28	5359.23
688.37	5440.22
688.47	5338.54
688.56	5338.54
688.65	5318.27
688.74	5282.53
688.84	5307.62
688.93	5340.80
689.02	5254.47
689.12	5326.97
689.21	5169.59
689.30	5069.75
689.39	4813.96
689.49	4724.25
689.58	4458.33
689.67	4280.46
689.77	3966.51
689.86	3785.16
689.95	3483.19
690.04	3315.35
690.14	3137.08
690.23	3067.45
690.32	2987.27
690.42	3026.80
690.51	2977.95
690.60	2968.63
690.69	2956.55
690.79	2894.39
690.88	2863.27
690.97	2834.90
691.06	2792.92
691.16	2835.92
691.25	2785.85
691.34	2791.28
691.43	2801.72
691.53	2791.38
691.62	2715.91
691.71	2702.29
691.80	2672.09
691.90	2616.38
691.99	2623.24
692.08	2617.30
692.18	2712.43
692.27	2773.26
692.36	2742.84
692.45	2746.84
692.55	2715.71
692.64	2766.29
692.73	2705.57
692.82	2732.20
692.91	2712.53
693.01	2727.79
693.10	2752.98
693.19	2729.02
693.28	2676.18
693.38	2710.08
693.47	2671.27
693.56	2632.05
693.65	2622.01
693.75	2678.33
693.84	2699.02
693.93	2729.02
694.02	2724.11
694.12	2754.72
694.21	2744.38
694.30	2807.36
694.39	2769.16
694.48	2787.08
694.58	2750.73
694.67	2761.48
694.76	2685.60
694.85	2686.73
694.95	2597.95
695.04	2603.28
695.13	2548.80
695.22	2622.73
695.31	2607.78
695.41	2628.06
695.50	2646.79
695.59	2620.17
695.68	2554.12
695.78	2544.29
695.87	2571.74
695.96	2585.56
696.05	2607.27
696.14	2671.27
696.24	2674.03
696.33	2717.76
696.42	2676.90
696.51	2669.42
696.60	2573.89
696.70	2533.34
696.79	2469.13
696.88	2484.19
696.97	2408.72
697.06	2469.65
697.16	2474.77
697.25	2536.72
697.34	2577.68
697.43	2669.63
697.52	2707.82
697.62	2843.09
697.71	2894.09
697.80	2968.74
697.89	2939.55
697.98	3022.39
698.08	2986.66
698.17	3030.58
698.26	3110.56
698.35	3183.26
698.44	3214.29
698.53	3247.98
698.63	3232.72
698.72	3314.94
698.81	3303.27
698.90	3408.33
698.99	3399.22
699.08	3502.23
699.18	3557.63
699.27	3570.33
699.36	3610.57
699.45	3682.45
699.54	3707.23
699.64	3800.62
699.73	3949.61
699.82	4114.47
699.91	4234.69
700.00	4485.15
700.09	4547.11
700.19	4497.34
700.28	4386.95
700.37	4275.85
700.46	4099.11
700.55	3972.65
700.64	3802.26
700.73	3746.25
700.83	3724.85
700.92	3693.31
701.01	3648.15
701.10	3682.15
701.19	3634.84
701.28	3687.88
701.38	3722.18
701.47	3780.86
701.56	3762.53
701.65	3814.34
701.74	3809.84
701.83	3809.73
701.92	3814.24
702.02	3876.40
702.11	3888.68
702.20	3992.41
702.29	4020.67
702.38	4113.65
702.47	4259.67
702.56	4350.60
702.66	4406.92
702.75	4509.63
702.84	4473.79
702.93	4550.28
703.02	4503.79
703.11	4503.59
703.20	4509.01
703.29	4548.03
703.39	4566.05
703.48	4714.94
703.57	4743.71
703.66	4971.24
703.75	4978.30
703.84	5247.31
703.93	5278.43
704.02	5445.34
704.12	5602.83
704.21	5797.90
704.30	5962.66
704.39	6292.18
704.48	6407.58
704.57	6649.24
704.66	6752.05
704.75	6773.14
704.84	6698.50
704.94	6748.57
705.03	6767.92
705.12	6859.88
705.21	6865.20
705.30	7009.28
705.39	7134.00
705.48	7290.77
705.57	7412.62
705.66	7625.61
705.75	7887.85
705.85	8142.01
705.94	8170.99
706.03	8340.97
706.12	8466.30
706.21	8627.79
706.30	8829.10
706.39	9060.83
706.48	9419.84
706.57	9781.92
706.66	9928.55
706.75	10401.63
706.85	10788.90
706.94	11382.61
707.03	11883.75
707.12	12842.50
707.21	13605.78
707.30	14450.26
707.39	14388.93
707.48	13757.23
707.57	12921.56
707.66	11562.52
707.75	9970.33
707.84	8624.82
707.93	7587.52
708.03	7085.46
708.12	6752.15
708.21	6709.15
708.30	6585.04
708.39	6596.92
708.48	6605.21
708.57	6886.60
708.66	6828.03
708.75	6905.75
708.84	6966.27
708.93	7167.48
709.02	7119.05
709.11	7155.19
709.20	7075.22
709.29	7214.48
709.39	7298.86
709.48	7449.08
709.57	7658.28
709.66	7965.98
709.75	8074.22
709.84	8294.27
709.93	8297.14
710.02	8427.60
710.11	8432.41
710.20	8502.24
710.29	8561.74
710.38	8675.71
710.47	8650.31
710.56	8889.62
710.65	9118.38
710.74	9152.27
710.83	9337.82
710.92	9628.32
711.01	9898.55
711.10	10122.80
711.19	10249.37
711.28	10696.54
711.38	10810.31
711.47	11020.02
711.56	11291.07
711.65	11642.19
711.74	11972.63
711.83	12325.60
711.92	12487.69
712.01	12780.14
712.10	13012.59
712.19	13357.06
712.28	13593.49
712.37	14065.14
712.46	14589.22
712.55	14890.99
712.64	15063.83
712.73	15345.02
712.82	15858.34
712.91	16230.56
713.00	16500.07
713.09	16529.26
713.18	16509.60
713.27	16484.61
713.36	16241.62
713.45	16617.94
713.54	16237.32
713.63	16636.06
713.72	17009.61
713.81	17266.94
713.90	17458.83
713.99	17968.16
714.08	18410.32
714.17	19030.85
714.26	19557.28
714.35	20176.59
714.44	20363.06
714.53	20937.41
714.62	21385.91
714.71	22330.85
714.80	23204.10
714.89	24337.55
714.98	25515.75
715.07	27638.57
715.16	29339.41
715.25	32036.99
715.34	32899.39
715.43	32754.19
715.52	30780.05
715.61	27725.20
715.70	23824.84
715.79	19711.08
715.88	15446.80
715.97	12817.01
716.06	11153.24
716.15	10334.77
716.24	9952.82
716.33	9811.82
716.42	9734.10
716.51	9617.06
716.60	9086.02
716.69	8650.31
716.78	7945.09
716.87	7358.56
716.96	6828.13
717.05	6650.88
717.13	6411.88
717.22	6482.33
717.31	6394.17
717.40	6430.52
717.49	6368.88
717.58	6402.87
717.67	6427.45
717.76	6598.45
717.85	6700.34
717.94	6723.38
718.03	6549.30
718.12	6515.82
718.21	6410.55
718.30	6321.06
718.39	6115.34
718.48	6085.54
718.57	6248.56
718.66	6348.09
718.75	6488.07
718.84	6523.09
718.93	6452.13
719.02	6558.21
719.10	6595.59
719.19	6766.80
719.28	6758.91
719.37	6979.78
719.46	7140.86
719.55	7571.85
719.64	7502.12
719.73	7521.88
719.82	7586.19
719.91	7956.46
720.00	8057.63
720.09	8169.04
720.18	8380.08
720.27	8889.31
720.36	9054.07
720.44	9158.62
720.53	9086.02
720.62	9390.14
720.71	9574.77
720.80	9681.47
720.89	10016.10
720.98	10472.19
721.07	10689.88
721.16	11009.57
721.25	11059.44
721.34	11217.44
721.43	11184.47
721.52	11478.46
721.60	11907.91
721.69	12708.77
721.78	12993.03
721.87	13469.29
721.96	13827.37
722.05	14207.17
722.14	14205.74
722.23	14613.69
722.32	14853.41
722.41	16037.13
722.50	16499.77
722.58	16812.90
722.67	16960.46
722.76	17672.02
722.85	17554.88
722.94	18062.37
723.03	18000.42
723.12	18485.27
723.21	18470.43
723.30	18856.16
723.38	18598.22
723.47	18546.61
723.56	18606.31
723.65	19141.44
723.74	19182.81
723.83	19423.75
723.92	18910.94
724.01	18926.82
724.10	18152.38
724.18	17732.44
724.27	17145.39
724.36	17277.69
724.45	16960.56
724.54	17245.02
724.63	17139.66
724.72	17674.69
724.81	17938.16
724.89	18450.15
724.98	18730.72
725.07	19231.55
725.16	19399.38
725.25	19429.08
725.34	18896.61
725.43	18632.93
725.52	18192.00
725.60	18182.28
725.69	17982.50
725.78	18578.87
725.87	19171.45
725.96	20044.90
726.05	20151.71
726.14	19987.46
726.22	18780.90
726.31	18017.31
726.40	16757.61
726.49	15730.65
726.58	15128.65
726.67	15340.21
726.76	15333.04
726.84	16043.38
726.93	16333.17
727.02	16998.65
727.11	17775.55
727.20	18261.63
727.29	18280.07
727.38	17883.68
727.46	16857.14
727.55	15672.59
727.64	14169.28
727.73	12956.58
727.82	12134.21
727.91	11812.68
727.99	11550.44
728.08	11770.39
728.17	12027.00
728.26	12428.92
728.35	12568.28
728.44	12728.54
728.52	12890.94
728.61	13107.41
728.70	13059.38
728.79	13253.84
728.88	13081.61
728.97	13307.50
729.05	12913.98
729.14	12653.07
729.23	12267.13
729.32	12117.11
729.41	11528.43
729.49	11429.41
729.58	11349.43
729.67	11687.14
729.76	11756.16
729.85	11751.86
729.94	11619.87
730.02	11862.86
730.11	12063.66
730.20	12532.65
730.29	12494.96
730.38	12808.20
730.46	13072.80
730.55	13619.81
730.64	13766.65
730.73	13765.11
730.82	13608.24
730.90	14174.50
730.99	14499.41
731.08	14726.84
731.17	14747.22
731.26	15283.89
731.34	15877.39
731.43	16365.01
731.52	16207.11
731.61	16477.14
731.70	16834.71
731.78	17320.90
731.87	17420.53
731.96	18166.40
732.05	19030.14
732.13	19710.68
732.22	19858.85
732.31	20421.93
732.40	20529.86
732.49	20978.16
732.57	20591.92
732.66	21526.30
732.75	22761.94
732.84	23488.97
732.93	23706.88
733.01	24740.08
733.10	25175.58
733.19	25992.20
733.28	25709.38
733.36	26410.71
733.45	27365.27
733.54	29103.58
733.63	29591.10
733.71	30228.33
733.80	30793.77
733.89	31851.85
733.98	31960.81
734.07	32525.53
734.15	32819.72
734.24	33921.43
734.33	34375.57
734.42	34787.41
734.50	33822.51
734.59	34017.48
734.68	33301.61
734.77	33836.85
734.85	33764.66
734.94	34667.20
735.03	33776.23
735.12	33700.86
735.20	32057.06
735.29	31130.66
735.38	29105.94
735.47	28247.12
735.55	27570.16
735.64	27687.00
735.73	27397.11
735.82	28234.22
735.90	28603.26
735.99	29323.12
736.08	29929.94
736.17	30675.70
736.25	31090.93
736.34	32278.14
736.43	32431.12
736.51	32366.10
736.60	31342.22
736.69	30470.09
736.78	29851.29
736.86	29518.60
736.95	29065.69
737.04	29772.65
737.13	31232.55
737.21	33065.79
737.30	33522.69
737.39	33368.99
737.47	31681.46
737.56	29927.48
737.65	27408.68
737.74	25272.55
737.82	23553.38
737.91	23241.99
738.00	23335.48
738.08	24021.24
738.17	24478.35
738.26	25446.11
738.35	26394.63
738.43	28056.56
738.52	28794.13
738.61	28931.96
738.69	27701.13
738.78	25827.14
738.87	23133.85
738.96	20596.93
739.04	17868.02
739.13	16234.56
739.22	15451.92
739.30	15482.95
739.39	15467.39
739.48	15868.48
739.56	16109.32
739.65	16637.29
739.74	16891.13
739.82	17260.08
739.91	17134.02
740.00	17644.99
740.09	17506.24
740.17	17905.39
740.26	18031.75
740.35	18410.52
740.43	17988.85
740.52	18032.98
740.61	17401.39
740.69	17109.75
740.78	16473.86
740.87	16119.66
740.95	15881.59
741.04	16167.28
741.13	16198.31
741.21	16450.51
741.30	16460.04
741.39	16565.61
741.47	16848.54
741.56	17959.56
741.65	18759.70
741.73	19836.73
741.82	20801.01
741.91	22434.17
741.99	23835.59
742.08	25127.55
742.17	25375.36
742.25	26245.44
742.34	26461.60
742.43	26838.32
742.51	25977.05
742.60	25795.60
742.69	24729.53
742.77	24224.40
742.86	23998.20
742.95	23746.50
743.03	23237.07
743.12	23596.29
743.21	23892.83
743.29	24803.15
743.38	24914.97
743.47	26486.89
743.55	27862.72
743.64	29234.65
743.73	30300.72
743.81	30983.10
743.90	32337.32
743.98	34056.29
744.07	36440.84
744.16	39718.92
744.24	42332.54
744.33	43738.88
744.42	44245.14
744.50	44134.75
744.59	42564.06
744.68	41016.31
744.76	39209.08
744.85	38616.09
744.93	39162.59
745.02	41113.48
745.11	42636.87
745.19	44580.90
745.28	44405.70
745.37	45438.18
745.45	46139.92
745.54	47109.73
745.62	47355.28
745.71	47842.39
745.80	48449.62
745.88	50599.06
745.97	50494.62
746.05	50893.66
746.14	50544.79
746.23	51396.34
746.31	52047.90
746.40	53824.71
746.49	55417.22
746.57	58842.14
746.66	61912.86
746.74	64168.08
746.83	64127.84
746.92	63921.82
747.00	60990.56
747.09	58340.69
747.17	53729.18
747.26	49175.93
747.35	46063.83
747.43	45598.95
747.52	45360.26
747.60	46200.23
747.69	46276.41
747.78	47499.56
747.86	47798.98
747.95	49635.49
748.03	50081.03
748.12	51464.94
748.20	50644.73
748.29	49681.06
748.38	48377.94
748.46	47366.75
748.55	46148.83
748.63	46579.41
748.72	46717.85
748.81	49397.21
748.89	52154.39
748.98	54349.61
749.06	53817.24
749.15	52825.20
749.23	49219.96
749.32	46837.35
749.41	42908.43
749.49	39942.56
749.58	38072.66
749.66	38165.43
749.75	38622.44
749.83	40463.05
749.92	41393.13
750.01	43497.53
750.09	45054.29
750.18	47426.96
750.26	48858.39
750.35	49829.03
750.43	47644.87
750.52	45470.64
750.60	41702.69
750.69	38849.05
750.78	35092.76
750.86	33292.50
750.95	32786.85
751.03	32458.97
751.12	31226.61
751.20	30009.91
751.29	28085.23
751.37	26425.25
751.46	24682.12
751.55	23474.74
751.63	22151.24
751.72	21812.10
751.80	21276.35
751.89	21293.04
751.97	20993.22
752.06	21164.43
752.14	21070.12
752.23	20903.51
752.31	20332.64
752.40	19846.46
752.48	18711.88
752.57	17868.94
752.65	16835.74
752.74	16319.03
752.83	15653.65
752.91	15709.97
753.00	15752.57
753.08	15747.45
753.17	15738.33
753.25	15724.61
753.34	15717.24
753.42	16078.30
753.51	16278.38
753.59	16954.11
753.68	17111.80
753.76	17942.46
753.85	18414.52
753.93	19490.83
754.02	19264.73
754.10	19238.11
754.19	19177.59
754.27	19741.29
754.36	19868.78
754.44	20561.91
754.53	20931.67
754.61	21723.11
754.70	22507.79
754.78	24046.74
754.87	24029.02
754.95	24061.69
755.04	23673.39
755.12	24757.08
755.21	25124.99
755.29	25884.28
755.38	26132.59
755.46	27975.77
755.55	29043.47
755.63	30064.18
755.72	30258.12
755.80	30443.26
755.89	30856.75
755.97	31240.23
756.06	31574.87
756.14	32768.32
756.23	34188.38
756.31	36077.12
756.40	36545.59
756.48	38157.55
756.57	38639.33
756.65	39577.20
756.74	39234.68
756.82	40433.56
756.91	40122.06
756.99	42333.66
757.08	44897.31
757.16	46793.63
757.25	47099.90
757.33	48491.70
757.41	49056.74
757.50	49897.33
757.58	50222.95
757.67	50786.55
757.75	51181.91
757.84	52977.47
757.92	53947.18
758.01	55033.63
758.09	53968.07
758.18	53683.51
758.26	53957.53
758.35	54610.32
758.43	54642.57
758.51	56450.21
758.60	57523.96
758.68	58766.77
758.77	57682.37
758.85	57132.18
758.94	54864.78
759.02	52098.79
759.11	49553.16
759.19	48249.63
759.27	46883.94
759.36	47303.47
759.44	47633.30
759.53	49353.49
759.61	49037.59
759.70	50296.37
759.78	51339.20
759.87	52453.50
759.95	53069.22
760.03	54739.44
760.12	55114.12
760.20	57681.04
760.29	57783.95
760.37	58232.46
760.46	57283.22
760.54	57340.87
760.62	57221.27
760.71	58149.31
760.79	58966.14
760.88	60909.46
760.96	62651.15
761.05	64229.52
761.13	64183.44
761.21	63591.68
761.30	57933.25
761.38	52914.60
761.47	46893.88
761.55	41597.52
761.64	36316.53
761.72	33524.02
761.80	32085.63
761.89	32517.96
761.97	33147.71
762.06	35066.34
762.14	35949.84
762.22	38039.28
762.31	40062.36
762.39	43012.87
762.48	44410.10
762.56	44065.94
762.64	41169.80
762.73	37668.19
762.81	32409.11
762.90	27479.54
762.98	21998.46
763.06	18056.84
763.15	16267.32
763.23	15906.57
763.32	15697.17
763.40	15983.27
763.48	15924.90
763.57	16440.58
763.65	16764.36
763.74	17496.82
763.82	17960.58
763.90	18206.13
763.99	18302.39
764.07	18153.71
764.15	17930.07
764.24	17887.98
764.32	17869.04
764.41	17893.92
764.49	17802.28
764.57	17746.98
764.66	17090.40
764.74	16331.83
764.82	15066.39
764.91	14435.82
764.99	13143.04
765.08	12434.86
765.16	11738.14
765.24	11741.72
765.33	11708.24
765.41	11789.34
765.49	11598.26
765.58	11533.85
765.66	11256.46
765.74	11517.26
765.83	11538.36
765.91	11964.13
766.00	12241.73
766.08	12796.94
766.16	13132.29
766.25	13726.51
766.33	13723.85
766.41	13672.44
766.50	13366.68
766.58	13610.49
766.66	13630.77
766.75	14058.38
766.83	14315.40
766.91	14779.27
767.00	15231.05
767.08	16021.26
767.16	16682.45
767.25	17276.87
767.33	16587.01
767.41	16554.45
767.50	16611.18
767.58	17241.13
767.66	17467.23
767.75	18081.52
767.83	18487.63
767.91	19565.37
768.00	20478.25
768.08	21028.95
768.16	20890.00
768.25	21104.22
768.33	21032.33
768.41	21641.30
768.50	21509.51
768.58	22581.01
768.66	23493.68
768.75	24389.06
768.83	25197.70
768.91	26108.02
769.00	26333.81
769.08	27039.84
769.16	26919.12
769.25	27132.41
769.33	27428.45
769.41	28347.37
769.50	29473.34
769.58	31374.88
769.66	32168.57
769.74	33134.60
769.83	33229.83
769.91	34250.84
769.99	34347.71
770.08	34818.95
770.16	35127.07
770.24	36249.46
770.33	36758.68
770.41	37978.15
770.49	38279.30
770.58	37844.82
770.66	36497.77
770.74	36939.21
770.82	37012.22
770.91	37505.58
770.99	37457.04
771.07	39227.72
771.16	40393.32
771.24	40877.66
771.32	39984.23
771.40	39302.98
771.49	37186.40
771.57	34863.29
771.65	32724.80
771.74	31352.05
771.82	29587.62
771.90	29312.27
771.98	29247.55
772.07	30496.61
772.15	30223.82
772.23	30656.66
772.31	31396.59
772.40	32322.07
772.48	32354.32
772.56	33002.09
772.65	33254.81
772.73	34157.66
772.81	34680.51
772.89	35687.29
772.98	35059.18
773.06	34363.99
773.14	33174.64
773.22	32609.09
773.31	31410.52
773.39	30879.89
773.47	30868.21
773.55	32949.05
773.64	34999.48
773.72	36703.90
773.80	38225.03
773.88	37315.73
773.97	35225.37
774.05	33061.79
774.13	29772.14
774.21	26953.21
774.30	24128.55
774.38	22217.08
774.46	21889.10
774.54	22222.71
774.63	22906.94
774.71	23579.29
774.79	24428.27
774.87	26299.30
774.96	27749.77
775.04	30169.14
775.12	31484.65
775.20	31764.51
775.29	29923.59
775.37	27609.59
775.45	24139.20
775.53	20223.69
775.61	15984.29
775.70	12653.48
775.78	10693.67
775.86	9764.10
775.94	9424.55
776.03	9497.05
776.11	9698.77
776.19	10151.68
776.27	10321.97
776.36	10914.96
776.44	11484.09
776.52	12082.20
776.60	12376.39
776.68	12895.34
776.77	12882.85
776.85	12997.02
776.93	12419.60
777.01	12053.83
777.09	11463.91
777.18	10993.50
777.26	10543.05
777.34	10353.81
777.42	9912.07
777.50	9481.07
777.59	8636.28
777.67	7909.05
777.75	7065.08
777.83	6383.01
777.91	5699.39
778.00	5553.58
778.08	5432.03
778.16	5556.96
778.24	5471.05
778.32	5685.57
778.41	5774.86
778.49	6188.86
778.57	6504.14
778.65	6899.81
778.73	7100.31
778.82	7252.37
778.90	7219.50
778.98	7210.18
779.06	6937.29
779.14	6634.91
779.22	6157.93
779.31	6025.84
779.39	5641.03
779.47	5471.15
779.55	5358.20
779.63	5338.24
779.72	5261.44
779.80	5426.30
779.88	5436.33
779.96	5590.03
780.04	5743.63
780.12	5867.02
780.21	5923.24
780.29	6085.54
780.37	6223.67
780.45	6361.50
780.53	6468.41
780.61	6512.03
780.70	6569.06
780.78	6671.05
780.86	6769.25
780.94	6919.78
781.02	6867.56
781.10	6882.92
781.18	6915.38
781.27	6857.32
781.35	6876.77
781.43	6752.26
781.51	6740.38
781.59	6679.14
781.67	6669.11
781.75	6831.92
781.84	6774.27
781.92	6882.81
782.00	6847.59
782.08	7141.57
782.16	7413.85
782.24	8252.90
782.32	9107.93
782.41	10354.84
782.49	11865.42
782.57	14133.75
782.65	16383.24
782.73	18683.62
782.81	19896.53
782.89	19464.92
782.98	18206.54
783.06	16713.06
783.14	14495.63
783.22	11742.95
783.30	9197.94
783.38	7924.31
783.46	7044.40
783.54	6737.71
783.63	6398.37
783.71	6258.39
783.79	6044.89
783.87	6126.81
783.95	6160.39
784.03	6273.03
784.11	6251.12
784.19	6393.55
784.27	6410.86
784.36	6550.33
784.44	6461.03
784.52	6497.90
784.60	6411.68
784.68	6443.01
784.76	6435.84
784.84	6301.29
784.92	6314.40
785.00	6524.93
785.08	6569.37
785.17	6697.68
785.25	6651.19
785.33	6796.18
785.41	6748.57
785.49	6675.15
785.57	6537.73
785.65	6636.55
785.73	6746.11
785.81	6980.09
785.89	7045.42
785.98	7340.33
786.06	7343.50
786.14	7458.09
786.22	7324.97
786.30	7284.83
786.38	7262.20
786.46	7233.94
786.54	7201.37
786.62	7307.56
786.70	7415.80
786.78	7484.10
786.86	7330.91
786.94	7368.28
787.03	7227.69
787.11	7117.72
787.19	6897.87
787.27	6787.48
787.35	6751.74
787.43	6921.11
787.51	6934.83
787.59	7379.75
787.67	7630.32
787.75	7986.67
787.83	8215.84
787.91	8477.67
787.99	8606.38
788.07	8861.46
788.15	8997.75
788.23	9241.97
788.32	9456.70
788.40	9563.81
788.48	9562.89
788.56	9168.35
788.64	8497.33
788.72	7833.69
788.80	6998.42
788.88	6231.05
788.96	5625.77
789.04	5253.55
789.12	4914.41
789.20	4801.16
789.28	4746.47
789.36	4877.03
789.44	4881.44
789.52	4934.38
789.60	4798.49
789.68	4758.66
789.76	4624.93
789.84	4498.88
789.92	4164.54
790.00	3997.12
790.08	3872.71
790.16	3727.00
790.25	3532.75
790.33	3326.93
790.41	3176.09
790.49	3175.58
790.57	3102.37
790.65	3014.92
790.73	2984.10
790.81	3016.15
790.89	3022.39
790.97	3184.18
791.05	3268.46
791.13	3416.32
791.21	3429.02
791.29	3427.58
791.37	3398.71
791.45	3322.42
791.53	3068.98
791.61	2918.56
791.69	2767.52
791.77	2684.89
791.85	2562.11
791.93	2450.80
792.01	2434.01
792.09	2475.07
792.17	2437.19
792.25	2416.09
792.33	2443.64
792.41	2579.42
792.49	2619.35
792.57	2752.88
792.65	2711.41
792.73	2695.64
792.81	2615.97
792.89	2521.15
792.97	2447.43
793.05	2445.58
793.13	2474.77
793.21	2586.89
793.29	2621.91
793.37	2660.52
793.45	2649.87
793.53	2716.53
793.61	2757.59
793.69	2789.64
793.77	2802.75
793.85	2897.98
793.93	2904.43
794.01	2987.06
794.09	2899.82
794.16	2849.75
794.24	2919.79
794.32	2945.80
794.40	3014.92
794.48	3034.07
794.56	3042.46
794.64	3115.98
794.72	3025.57
794.80	3191.55
794.88	3254.43
794.96	3313.61
795.04	3301.53
795.12	3464.86
795.20	3402.50
795.28	3508.07
795.36	3497.01
795.44	3536.02
795.52	3522.40
795.60	3687.06
795.68	3708.26
795.76	3835.64
795.84	3945.31
795.92	4022.11
796.00	3987.60
796.07	4024.26
796.15	4051.50
796.23	4090.61
796.31	4055.90
796.39	4215.95
796.47	4231.82
796.55	4505.84
796.63	4530.31
796.71	4660.77
796.79	4676.33
796.87	4690.36
796.95	4664.76
797.03	4915.12
797.11	4992.64
797.19	5083.57
797.27	5233.07
797.34	5496.24
797.42	5744.86
797.50	5887.19
797.58	5948.22
797.66	6011.10
797.74	6045.30
797.82	5926.00
797.90	5980.58
797.98	6155.37
798.06	6190.91
798.14	6544.59
798.22	6553.40
798.29	6822.30
798.37	6881.58
798.45	7123.45
798.53	7057.20
798.61	7191.24
798.69	7226.56
798.77	7459.32
798.85	7714.90
798.93	7993.94
799.01	8304.72
799.09	8758.86
799.16	9518.96
799.24	10339.78
799.32	11124.77
799.40	11672.30
799.48	11927.06
799.56	12013.08
799.64	11316.15
799.72	10234.52
799.80	8997.55
799.88	7650.39
799.95	6259.82
800.03	5331.89
800.11	4634.86
800.19	4393.61
800.27	4136.69
800.35	3983.81
800.43	3853.36
800.51	3837.79
800.58	3843.83
800.66	3734.37
800.74	3617.22
800.82	3614.66
800.90	3513.39
800.98	3499.36
801.06	3383.96
801.14	3326.00
801.21	3303.07
801.29	3396.56
801.37	3414.37
801.45	3578.83
801.53	3575.75
801.61	3704.06
801.69	3835.13
801.77	3899.74
801.84	3843.93
801.92	3733.34
802.00	3658.39
802.08	3612.51
802.16	3452.88
802.24	3358.57
802.32	3249.10
802.39	3262.00
802.47	3272.45
802.55	3401.16
802.63	3546.16
802.71	3685.83
802.79	3845.16
802.87	3906.09
802.94	3858.27
803.02	3853.36
803.10	3736.42
803.18	3633.71
803.26	3384.06
803.34	3257.29
803.41	3164.93
803.49	3194.52
803.57	3114.24
803.65	3135.13
803.73	3106.26
803.81	3191.14
803.88	3197.39
803.96	3265.59
804.04	3308.70
804.12	3243.06
804.20	3290.98
804.28	3271.83
804.35	3320.27
804.43	3400.14
804.51	3417.65
804.59	3415.09
804.67	3287.91
804.75	3273.17
804.82	3072.36
804.90	2928.80
804.98	2725.44
805.06	2631.44
805.14	2632.77
805.21	2767.22
805.29	2853.95
805.37	3013.48
805.45	3104.72
805.53	3236.41
805.60	3278.49
805.68	3238.56
805.76	3129.71
805.84	3171.38
805.92	3138.82
805.99	3190.43
806.07	3074.00
806.15	3113.42
806.23	3120.08
806.31	3125.10
806.38	3046.97
806.46	3050.04
806.54	2951.12
806.62	2971.50
806.70	2898.59
806.77	2794.66
806.85	2726.15
806.93	2744.89
807.01	2737.32
807.09	2751.04
807.16	2711.92
807.24	2757.79
807.32	2755.64
807.40	2746.33
807.48	2697.69
807.55	2684.27
807.63	2758.31
807.71	2880.57
807.79	2888.35
807.86	2973.65
807.94	2993.82
808.02	3011.23
808.10	2975.70
808.17	2995.15
808.25	2982.56
808.33	2970.07
808.41	3046.87
808.49	3032.22
808.56	3145.78
808.64	3148.55
808.72	3317.91
808.80	3496.60
808.87	3612.51
808.95	3820.28
809.03	3890.12
809.11	4080.99
809.18	4124.61
809.26	4215.44
809.34	3999.07
809.42	3947.05
809.49	3898.72
809.57	3972.44
809.65	3898.92
809.73	3898.92
809.80	4003.16
809.88	4080.27
809.96	4036.85
810.04	4112.63
810.11	4213.08
810.19	4243.60
810.27	4314.25
810.35	4457.92
810.42	4623.08
810.50	4881.44
810.58	4862.90
810.66	5096.27
810.73	5065.34
810.81	5116.95
810.89	5209.93
810.96	5287.14
811.04	5211.26
811.12	5387.28
811.20	5620.34
811.27	5970.96
811.35	6289.11
811.43	7192.06
811.50	7736.10
811.58	8554.67
811.66	8501.84
811.74	8739.60
811.81	8153.17
811.89	7569.09
811.97	6597.33
812.05	5516.31
812.12	4485.87
812.20	3690.64
812.28	2953.58
812.35	2539.69
812.43	2293.83
812.51	2152.21
812.58	2113.81
812.66	2137.67
812.74	2166.34
812.82	2219.08
812.89	2239.86
812.97	2248.67
813.05	2224.91
813.12	2222.35
813.20	2171.36
813.28	2126.00
813.35	2102.85
813.43	2057.18
813.51	2065.89
813.59	2089.13
813.66	2106.75
813.74	2116.47
813.82	2059.54
813.89	2067.12
813.97	2000.35
814.05	1973.42
814.12	1960.32
814.20	1976.39
814.28	2028.10
814.35	2117.91
814.43	2142.99
814.51	2262.70
814.58	2261.67
814.66	2279.08
814.74	2253.79
814.81	2207.81
814.89	2142.48
814.97	2126.10
815.04	2095.58
815.12	2118.73
815.20	2042.54
815.27	2020.32
815.35	2056.98
815.43	2084.32
815.50	2034.86
815.58	2077.05
815.66	2121.49
815.73	2213.65
815.81	2218.67
815.89	2275.50
815.96	2222.15
816.04	2203.20
816.12	2151.49
816.19	2130.81
816.27	2115.24
816.35	2209.45
816.42	2337.45
816.50	2474.25
816.58	2555.66
816.65	2657.85
816.73	2679.05
816.80	2665.94
816.88	2523.61
816.96	2434.01
817.03	2320.25
817.11	2255.63
817.19	2219.90
817.26	2230.85
817.34	2247.54
817.42	2309.90
817.49	2342.88
817.57	2382.50
817.64	2369.09
817.72	2347.07
817.80	2322.81
817.87	2362.95
817.95	2379.64
818.03	2479.89
818.10	2614.64
818.18	3030.07
818.25	3702.83
818.33	4391.25
818.41	4893.93
818.48	5401.82
818.56	5940.95
818.63	6432.47
818.71	6391.71
818.79	5866.51
818.86	5172.96
818.94	4750.47
819.02	4155.74
819.09	3446.94
819.17	2744.79
819.24	2409.95
819.32	2095.89
819.40	1980.39
819.47	1885.16
819.55	1877.37
819.62	1842.97
819.70	1955.30
819.78	2028.72
819.85	2251.64
819.93	2410.05
820.00	2562.93
820.08	2614.74
820.16	2614.54
820.23	2525.86
820.31	2377.69
820.38	2161.22
820.46	1973.42
820.53	1760.64
820.61	1711.79
820.69	1690.19
820.76	1779.79
820.84	1919.46
820.91	2111.35
820.99	2244.88
821.07	2400.12
821.14	2530.98
821.22	2828.35
821.29	3258.52
821.37	4275.34
821.44	5585.94
821.52	6406.25
821.60	6651.29
821.67	6920.39
821.75	6766.18
821.82	6459.60
821.90	5419.33
821.97	4275.03
822.05	3999.89
822.12	4159.01
822.20	4169.87
822.28	4078.63
822.35	3858.07
822.43	3707.23
822.50	3371.88
822.58	2891.73
822.65	2235.05
822.73	1979.36
822.80	1776.72
822.88	1690.09
822.96	1607.04
823.03	1632.64
823.11	1585.13
823.18	1596.39
823.26	1578.78
823.33	1584.72
823.41	1579.70
823.48	1587.89
823.56	1584.10
823.63	1637.86
823.71	1653.02
823.79	1707.70
823.86	1837.44
823.94	2109.61
824.01	2630.31
824.09	3096.63
824.16	3286.58
824.24	3480.42
824.31	3549.03
824.39	3529.57
824.46	3273.58
824.54	2794.76
824.61	2427.87
824.69	2268.02
824.76	2090.57
824.84	2057.18
824.91	2015.61
824.99	2011.92
825.06	1997.08
825.14	1948.64
825.21	1925.30
825.29	1970.35
825.36	1909.01
825.44	1923.45
825.51	1887.41
825.59	1899.59
825.67	1892.43
825.74	1933.18
825.82	1929.19
825.89	1978.75
825.97	2058.62
826.04	2047.05
826.12	2105.52
826.19	2163.27
826.27	2140.54
826.34	2199.83
826.41	2153.64
826.49	2178.63
826.56	2178.01
826.64	2154.98
826.71	2042.64
826.79	2058.62
826.86	2019.60
826.94	1992.26
827.01	2039.16
827.09	2046.23
827.16	2030.05
827.24	2157.84
827.31	2210.68
827.39	2316.76
827.46	2339.91
827.54	2521.87
827.61	2550.85
827.69	2796.81
827.76	2937.61
827.84	3218.28
827.91	3275.42
827.99	3469.46
828.06	3582.82
828.14	3615.89
828.21	3529.57
828.28	3341.77
828.36	3056.08
828.43	2859.48
828.51	2567.23
828.58	2393.67
828.66	2134.70
828.73	2035.89
828.81	1869.80
828.88	1888.84
828.96	1826.58
829.03	1825.05
829.11	1813.27
829.18	1886.79
829.25	1926.11
829.33	1955.50
829.40	1912.39
829.48	1964.82
829.55	1978.85
829.63	2038.45
829.70	2002.81
829.78	2020.12
829.85	2025.65
829.92	2011.00
830.00	2045.82
830.07	2101.42
830.15	2147.81
830.22	2229.83
830.30	2202.80
830.37	2275.60
830.44	2191.94
830.52	2197.47
830.59	2147.91
830.67	2106.03
830.74	2032.10
830.82	2001.89
830.89	2029.64
830.96	2068.76
831.04	2054.01
831.11	2183.95
831.19	2165.42
831.26	2198.29
831.34	2167.06
831.41	2217.13
831.48	2171.05
831.56	2136.24
831.63	2126.41
831.71	2068.45
831.78	2047.97
831.85	2030.46
831.93	2035.68
832.00	2066.30
832.08	2130.81
832.15	2138.90
832.22	2059.74
832.30	2068.86
832.37	2080.94
832.45	2042.44
832.52	2073.67
832.59	2106.54
832.67	2095.79
832.74	2152.21
832.82	2197.98
832.89	2268.84
832.96	2363.77
833.04	2454.49
833.11	2544.91
833.19	2521.97
833.26	2596.21
833.33	2599.90
833.41	2566.72
833.48	2508.15
833.56	2408.82
833.63	2351.48
833.70	2266.28
833.78	2261.57
833.85	2251.43
833.92	2236.07
834.00	2177.50
834.07	2164.50
834.15	2087.49
834.22	2051.14
834.29	2004.96
834.37	2012.23
834.44	2033.94
834.51	2017.86
834.59	2027.49
834.66	2118.32
834.73	2158.46
834.81	2233.72
834.88	2242.22
834.96	2320.86
835.03	2345.44
835.10	2288.40
835.18	2323.63
835.25	2317.28
835.32	2287.68
835.40	2232.29
835.47	2213.14
835.54	2233.82
835.62	2271.09
835.69	2267.72
835.76	2297.92
835.84	2312.87
835.91	2391.21
835.98	2411.79
836.06	2414.56
836.13	2465.45
836.21	2478.04
836.28	2532.42
836.35	2542.45
836.43	2554.43
836.50	2527.50
836.57	2487.05
836.65	2524.63
836.72	2486.64
836.79	2467.50
836.87	2508.35
836.94	2517.36
837.01	2583.41
837.08	2611.26
837.16	2690.83
837.23	2734.24
837.30	2762.51
837.38	2761.28
837.45	2769.57
837.52	2728.30
837.60	2774.38
837.67	2742.23
837.74	2792.92
837.82	2839.51
837.89	2841.56
837.96	2840.02
838.04	2896.65
838.11	2865.21
838.18	2848.93
838.26	2781.04
838.33	2701.58
838.40	2656.73
838.47	2783.29
838.55	2752.78
838.62	2821.28
838.69	2835.52
838.77	2908.73
838.84	2982.87
838.91	3030.28
838.99	3062.43
839.06	3116.09
839.13	3089.57
839.20	3187.97
839.28	3273.78
839.35	3422.26
839.42	3560.19
839.50	3838.82
839.57	4024.67
839.64	4438.56
839.71	4630.76
839.79	4856.14
839.86	4985.98
839.93	5087.67
840.01	5035.34
840.08	4964.69
840.15	4674.59
840.22	4541.68
840.30	4122.25
840.37	3842.91
840.44	3445.61
840.51	3011.85
840.59	2664.71
840.66	2451.42
840.73	2273.86
840.81	2257.07
840.88	2209.35
840.95	2186.72
841.02	2125.89
841.10	2153.64
841.17	2110.64
841.24	2094.05
841.31	2011.21
841.39	2021.24
841.46	2094.97
841.53	2241.81
841.60	2322.09
841.68	2411.07
841.75	2484.29
841.82	2553.00
841.89	2515.01
841.97	2485.62
842.04	2407.28
842.11	2413.63
842.18	2418.14
842.26	2471.90
842.33	2437.80
842.40	2475.38
842.47	2478.96
842.55	2488.08
842.62	2413.53
842.69	2401.55
842.76	2478.86
842.84	2537.64
842.91	2684.38
842.98	2862.55
843.05	2935.46
843.12	3112.81
843.20	3009.39
843.27	3072.47
843.34	3036.52
843.41	3007.54
843.49	2894.60
843.56	2886.51
843.63	2849.44
843.70	2899.72
843.77	2884.15
843.85	3014.81
843.92	2998.74
843.99	3130.53
844.06	3227.29
844.14	3349.04
844.21	3443.05
844.28	3501.00
844.35	3533.36
844.42	3615.89
844.50	3584.35
844.57	3662.18
844.64	3621.53
844.71	3705.08
844.78	3675.59
844.86	3745.73
844.93	3785.16
845.00	3764.47
845.07	3780.24
845.14	3835.74
845.22	3746.66
845.29	3825.71
845.36	3864.62
845.43	3873.63
845.50	3927.59
845.57	3952.58
845.65	4012.69
845.72	4241.75
845.79	4330.63
845.86	4525.29
845.93	4674.18
846.01	4731.52
846.08	4801.97
846.15	4791.12
846.22	4791.33
846.29	4827.57
846.36	4586.84
846.44	4609.47
846.51	4716.37
846.58	4869.76
846.65	5025.41
846.72	5379.30
846.80	5677.28
846.87	6009.56
846.94	6415.26
847.01	6718.05
847.08	6939.44
847.15	7133.79
847.22	7124.47
847.30	7053.92
847.37	6947.63
847.44	6795.67
847.51	6502.20
847.58	6363.76
847.65	6068.85
847.73	6086.05
847.80	6000.55
847.87	6003.93
847.94	5887.40
848.01	5963.68
848.08	5990.82
848.15	6016.11
848.23	6018.06
848.30	6056.25
848.37	5912.90
848.44	5913.61
848.51	5854.94
848.58	5894.46
848.65	5776.09
848.73	5836.51
848.80	5842.65
848.87	6113.29
848.94	6069.36
849.01	6265.66
849.08	6220.91
849.15	6320.75
849.23	6300.58
849.30	6350.44
849.37	6151.07
849.44	6165.82
849.51	5963.99
849.58	5878.28
849.65	5668.06
849.72	5650.35
849.79	5605.29
849.87	5577.23
849.94	5549.89
850.01	5661.92
850.08	5643.59
850.15	5828.42
850.22	5930.20
850.29	6069.77
850.36	6034.34
850.44	6256.75
850.51	6309.89
850.58	6364.37
850.65	6337.75
850.72	6409.02
850.79	6553.40
850.86	6784.10
850.93	6973.64
851.00	7108.09
851.07	7011.02
851.15	7016.03
851.22	6855.58
851.29	6784.41
851.36	6543.16
851.43	6250.30
851.50	6139.50
851.57	6325.87
851.64	6291.77
851.71	6357.20
851.78	6534.76
851.85	6917.94
851.92	7142.50
852.00	7548.81
852.07	7656.95
852.14	7816.07
852.21	7966.60
852.28	7936.60
852.35	7643.33
852.42	7539.70
852.49	7155.91
852.56	6863.15
852.63	6729.42
852.70	6677.40
852.77	6637.77
852.84	6662.04
852.92	6599.48
852.99	6598.96
853.06	6607.26
853.13	6734.85
853.20	6905.85
853.27	7134.00
853.34	7406.68
853.41	7769.07
853.48	7936.70
853.55	8233.55
853.62	8415.62
853.69	8470.50
853.76	8581.71
853.83	8294.99
853.90	8121.02
853.97	7945.71
854.04	7556.29
854.11	7207.93
854.18	6688.26
854.26	6262.89
854.33	5681.37
854.40	5436.33
854.47	5002.88
854.54	4815.08
854.61	4591.75
854.68	4469.69
854.75	4386.85
854.82	4513.83
854.89	4590.73
854.96	4832.08
855.03	5090.74
855.10	5527.98
855.17	6072.94
855.24	6761.27
855.31	7439.35
855.38	7594.28
855.45	7535.30
855.52	7472.53
855.59	7329.17
855.66	7104.10
855.73	6668.60
855.80	6059.94
855.87	5603.04
855.94	5362.61
856.01	5208.50
856.08	4994.28
856.15	4593.90
856.22	4261.62
856.29	3977.87
856.36	3882.64
856.43	3735.49
856.50	3666.58
856.57	3560.29
856.64	3664.74
856.71	3678.15
856.78	3797.24
856.85	3695.76
856.92	3598.49
856.99	3373.11
857.06	3187.36
857.13	3029.05
857.20	2960.75
857.27	2901.66
857.34	2952.15
857.41	3065.81
857.48	3164.73
857.55	3321.29
857.62	3481.14
857.69	3419.08
857.76	3447.65
857.83	3329.59
857.90	3235.28
857.97	3099.40
858.04	3045.33
858.11	3042.97
858.18	3267.53
858.25	3450.11
858.32	3537.76
858.39	3505.82
858.46	3576.68
858.53	3575.86
858.60	3521.69
858.67	3290.78
858.74	3205.38
858.81	3199.44
858.88	3502.85
858.95	3868.72
859.02	4251.99
859.09	4587.65
859.16	4925.67
859.23	5062.89
859.29	5271.37
859.36	5122.07
859.43	4973.80
859.50	4759.58
859.57	4692.72
859.64	4629.43
859.71	4672.85
859.78	4645.00
859.85	4678.69
859.92	4638.44
859.99	4523.66
860.06	4367.81
860.13	4265.82
860.20	4112.83
860.27	4349.37
860.34	4513.62
860.41	4769.00
860.48	5064.01
860.54	5346.53
860.61	5273.72
860.68	5394.96
860.75	5292.36
860.82	5265.53
860.89	5268.30
860.96	5207.06
861.03	5170.51
861.10	5283.55
861.17	5300.86
861.24	5431.52
861.31	5377.86
861.38	5523.99
861.45	5462.96
861.51	5540.47
861.58	5649.12
861.65	5852.17
861.72	6004.13
861.79	6210.87
861.86	6284.19
861.93	6385.36
862.00	6416.49
862.07	6489.40
862.14	6468.71
862.21	6655.39
862.27	6760.34
862.34	6822.81
862.41	6997.81
862.48	7550.96
862.55	8042.27
862.62	8709.40
862.69	8921.67
862.76	9319.28
862.83	9462.13
862.90	9846.02
862.96	9726.83
863.03	9626.17
863.10	9276.58
863.17	9171.01
863.24	9047.41
863.31	9235.01
863.38	9181.15
863.45	9249.75
863.52	9392.70
863.58	9489.57
863.65	9457.72
863.72	9492.34
863.79	9328.60
863.86	9302.90
863.93	9248.73
864.00	9113.56
864.07	9068.71
864.13	9215.04
864.20	9443.70
864.27	9894.56
864.34	10049.59
864.41	10389.14
864.48	10608.07
864.55	11079.10
864.62	11191.43
864.68	11253.90
864.75	11162.76
864.82	11295.26
864.89	11273.04
864.96	11279.60
865.03	11405.65
865.10	11728.21
865.16	12211.22
865.23	12441.72
865.30	12669.86
865.37	12998.87
865.44	13382.45
865.51	13766.55
865.58	13826.66
865.64	13892.19
865.71	13950.35
865.78	14223.86
865.85	14293.49
865.92	14269.84
865.99	14088.39
866.05	14046.92
866.12	13802.39
866.19	14030.84
866.26	13901.41
866.33	13917.18
866.40	13500.72
866.46	13555.81
866.53	13639.88
866.60	14249.77
866.67	14349.09
866.74	14576.01
866.81	14349.20
866.87	14629.46
866.94	14595.26
867.01	14889.86
867.08	14493.68
867.15	14550.72
867.21	14014.35
867.28	13552.33
867.35	13178.17
867.42	12919.20
867.49	12943.57
867.56	13572.20
867.62	14459.68
867.69	15597.43
867.76	16166.97
867.83	17127.67
867.90	18307.00
867.96	19821.16
868.03	20607.89
868.10	21273.38
868.17	20355.89
868.24	20482.86
868.30	20307.56
868.37	20861.74
868.44	20271.00
868.51	19282.44
868.58	18758.78
868.64	18560.84
868.71	18408.06
868.78	18157.50
868.85	17548.43
868.92	16905.98
868.98	16155.71
869.05	15588.22
869.12	14932.56
869.19	14062.68
869.25	12995.90
869.32	12359.80
869.39	11844.84
869.46	11746.53
869.53	11544.40
869.59	11582.08
869.66	11524.23
869.73	11929.83
869.80	12476.53
869.86	13324.39
869.93	13976.98
870.00	14593.11
870.07	14823.91
870.14	15204.22
870.20	14972.60
870.27	14724.90
870.34	14080.81
870.41	13461.91
870.47	12402.70
870.54	11961.67
870.61	11438.21
870.68	11332.74
870.74	11211.09
870.81	11206.28
870.88	10973.12
870.95	10878.20
871.01	10768.83
871.08	10695.82
871.15	10576.94
871.22	10566.09
871.28	10362.93
871.35	10359.75
871.42	10494.71
871.49	10884.75
871.55	11097.33
871.62	11506.10
871.69	11833.27
871.76	12157.66
871.82	12314.74
871.89	12568.18
871.96	12282.39
872.02	12040.21
872.09	11356.70
872.16	11010.60
872.23	10218.24
872.29	9594.53
872.36	8753.22
872.43	8205.70
872.50	7609.43
872.56	7236.60
872.63	6765.77
872.70	6397.85
872.76	6014.88
872.83	5811.73
872.90	5445.55
872.97	5338.44
873.03	5307.00
873.10	5357.38
873.17	5289.49
873.23	5388.10
873.30	5298.81
873.37	5433.57
873.44	5286.42
873.50	5236.96
873.57	5042.10
873.64	4951.48
873.70	4901.51
873.77	4979.53
873.84	4961.92
873.91	4998.17
873.97	5070.87
874.04	5263.59
874.11	5376.43
874.17	5599.76
874.24	5593.11
874.31	5623.01
874.37	5494.39
874.44	5337.62
874.51	5198.05
874.57	5069.95
874.64	4848.57
874.71	4769.00
874.77	4555.19
874.84	4521.20
874.91	4439.59
874.98	4394.33
875.04	4285.07
875.11	4168.03
875.18	3852.43
875.24	3667.50
875.31	3470.90
875.38	3400.65
875.44	3320.47
875.51	3430.96
875.58	3434.34
875.64	3529.06
875.71	3599.20
875.78	3755.97
875.84	3816.39
875.91	3827.24
875.98	3731.81
876.04	3645.49
876.11	3560.19
876.18	3558.45
876.24	3475.30
876.31	3559.27
876.37	3619.38
876.44	3824.89
876.51	3927.49
876.57	4084.47
876.64	4016.17
876.71	4070.54
876.77	3887.56
876.84	3800.31
876.91	3645.18
876.97	3581.08
877.04	3496.29
877.11	3609.03
877.17	3712.46
877.24	4008.59
877.31	4181.44
877.37	4302.99
877.44	4356.64
877.50	4433.24
877.57	4418.80
877.64	4427.40
877.70	4246.36
877.77	4197.11
877.84	4135.16
877.90	4255.99
877.97	4365.35
878.03	4550.79
878.10	4594.93
878.17	4685.75
878.23	4590.93
878.30	4638.03
878.37	4572.09
878.43	4515.67
878.50	4327.67
878.56	4375.38
878.63	4434.57
878.70	4625.85
878.76	4748.42
878.83	5011.99
878.89	5173.27
878.96	5342.13
879.03	5373.77
879.09	5420.67
879.16	5366.91
879.22	5318.37
879.29	5317.35
879.36	5432.65
879.42	5420.97
879.49	5411.76
879.55	5552.56
879.62	5721.10
879.69	5639.49
879.75	5772.00
879.82	5717.21
879.88	5739.43
879.95	5649.73
880.02	5715.47
880.08	5798.93
880.15	6032.50
880.21	6070.79
880.28	6271.90
880.34	6358.53
880.41	6479.67
880.48	6381.27
880.54	6573.37
880.61	6555.45
880.67	6736.79
880.74	6775.30
880.80	6887.83
880.87	6880.46
880.94	6891.41
881.00	6970.88
881.07	7210.28
881.13	7183.46
881.20	7184.58
881.26	7163.08
881.33	7307.77
881.40	7395.11
881.46	7406.68
881.53	7400.44
881.59	7441.29
881.66	7466.38
881.72	7650.19
881.79	7767.64
881.85	8032.65
881.92	8063.06
881.99	8397.29
882.05	8496.31
882.12	8697.11
882.18	8800.74
882.25	8899.04
882.31	8894.74
882.38	9004.61
882.44	8837.09
882.51	9013.52
882.57	8973.48
882.64	9049.87
882.71	9052.23
882.77	9180.12
882.84	9291.53
882.90	9690.17
882.97	9835.98
883.03	10125.16
883.10	10233.09
883.16	10527.07
883.23	10613.09
883.29	10880.35
883.36	10745.28
883.42	10722.96
883.49	10627.11
883.55	10835.19
883.62	10775.39
883.68	10868.88
883.75	10663.67
883.81	10901.64
883.88	10986.64
883.94	11252.67
884.01	11341.55
884.07	11525.15
884.14	11432.48
884.20	11696.05
884.27	11946.72
884.34	12155.31
884.40	12086.60
884.47	12262.62
884.53	12257.30
884.60	12475.00
884.66	12359.70
884.73	12561.01
884.79	12339.93
884.86	12292.73
884.92	12239.99
884.98	12181.52
885.05	12139.74
885.11	12147.94
885.18	12092.64
885.24	12142.20
885.31	11943.65
885.37	12109.43
885.44	12203.33
885.50	12557.12
885.57	12621.63
885.63	12708.16
885.70	12744.41
885.76	12908.24
885.83	12855.00
885.89	13103.62
885.96	12851.11
886.02	12786.70
886.09	12465.37
886.15	12210.81
886.22	11799.47
886.28	11571.23
886.35	11150.58
886.41	10952.33
886.47	10557.69
886.54	10359.45
886.60	9927.94
886.67	9872.23
886.73	9601.49
886.80	9565.96
886.86	9485.06
886.93	9571.59
886.99	9481.48
887.06	9550.60
887.12	9510.15
887.19	9551.62
887.25	9489.78
887.31	9695.39
887.38	9603.13
887.44	9796.97
887.51	9809.57
887.57	9918.93
887.64	9988.35
887.70	10231.34
887.77	10285.51
887.83	10723.78
887.89	10682.10
887.96	10824.33
888.02	10683.74
888.09	10605.51
888.15	10382.38
888.22	10317.87
888.28	10038.12
888.34	9825.95
888.41	9435.40
888.47	9342.63
888.54	9109.16
888.60	9126.88
888.67	8984.54
888.73	9092.16
888.79	9068.41
888.86	9245.86
888.92	9342.22
888.99	9702.97
889.05	9840.29
889.11	10165.30
889.18	10201.34
889.24	10353.92
889.31	10263.91
889.37	10158.33
889.44	9878.48
889.50	9605.69
889.56	9094.31
>>>>>End Processed Spectral Data<<<<<
