SpectraSuite Data File
++++++++++++++++++++++++++++++++++++
Date: Wed Jul 12 16:21:37 CDT 2017
User: Owner
Dark Spectrum Present: Yes
Reference Spectrum Present: Yes
Number of Sampled Component Spectra: 1
Spectrometers: USB4H04489
Integration Time (usec): 50000 (USB4H04489)
Spectra Averaged: 20 (USB4H04489)
Boxcar Smoothing: 0 (USB4H04489)
Correct for Electrical Dark: No (USB4H04489)
Strobe/Lamp Enabled: No (USB4H04489)
Correct for Detector Non-linearity: No (USB4H04489)
Correct for Stray Light: No (USB4H04489)
Number of Pixels in Processed Spectrum: 3648
>>>>>Begin Processed Spectral Data<<<<<
580.28	-5.84
580.38	-5.84
580.48	-5.84
580.59	0.41
580.69	-28.47
580.79	5.73
580.90	4.30
581.00	6.96
581.11	-7.37
581.21	-21.50
581.31	18.33
581.42	-3.58
581.52	12.29
581.62	-12.70
581.73	8.60
581.83	4.10
581.93	15.05
582.04	35.12
582.14	1936.25
582.25	3067.35
582.35	3189.92
582.45	3286.27
582.56	3429.73
582.66	3568.89
582.76	3703.65
582.87	3840.86
582.97	3985.14
583.07	4020.37
583.18	4171.51
583.28	4190.04
583.38	4262.03
583.49	4185.74
583.59	4185.84
583.70	4045.76
583.80	3939.27
583.90	3787.62
584.01	3831.34
584.11	3814.03
584.21	3949.51
584.32	3934.66
584.42	4050.98
584.52	4041.97
584.63	4091.53
584.73	4065.01
584.83	4169.97
584.94	4158.20
585.04	4103.31
585.14	3931.59
585.25	3834.31
585.35	3604.22
585.45	3591.73
585.56	3557.94
585.66	3760.38
585.76	3610.88
585.87	3390.31
585.97	3108.61
586.07	2779.20
586.18	2479.48
586.28	2399.50
586.38	2426.64
586.49	2596.01
586.59	2687.75
586.69	2812.07
586.80	2848.21
586.90	2971.19
587.00	3042.67
587.11	3185.51
587.21	3248.08
587.31	3356.42
587.41	3473.05
587.52	3630.54
587.62	3770.31
587.72	3947.97
587.83	4082.83
587.93	4263.26
588.03	4395.15
588.14	4407.64
588.24	4491.20
588.34	4623.90
588.45	4595.13
588.55	4742.48
588.65	4714.01
588.75	4547.11
588.86	4426.79
588.96	4327.87
589.06	4179.09
589.17	4270.63
589.27	4338.72
589.37	4407.23
589.48	4505.63
589.58	4596.87
589.68	4576.08
589.78	4647.76
589.89	4617.35
589.99	4733.67
590.09	4781.70
590.20	4642.75
590.30	4519.15
590.40	4379.38
590.50	4137.31
590.61	4075.36
590.71	4119.18
590.81	4411.73
590.92	4245.95
591.02	4051.29
591.12	3668.42
591.22	3220.84
591.33	2850.87
591.43	2720.93
591.53	2668.09
591.64	2735.47
591.74	2889.48
591.84	3029.36
591.94	3064.38
592.05	3148.55
592.15	3264.15
592.25	3404.65
592.35	3433.11
592.46	3593.26
592.56	3695.87
592.66	3945.92
592.76	4098.70
592.87	4229.98
592.97	4333.81
593.07	4565.95
593.18	4600.97
593.28	4692.20
593.38	4663.84
593.48	4737.26
593.59	4736.85
593.69	4941.75
593.79	4919.94
593.89	4921.68
594.00	4779.75
594.10	4700.91
594.20	4531.44
594.30	4452.39
594.41	4489.35
594.51	4611.00
594.61	4680.63
594.71	4786.41
594.82	4927.31
594.92	4971.34
595.02	4999.81
595.12	5022.54
595.23	5155.66
595.33	5161.50
595.43	5143.06
595.53	5095.04
595.64	4918.09
595.74	4732.55
595.84	4509.63
595.94	4524.78
596.04	4608.13
596.15	4584.58
596.25	4168.23
596.35	3860.73
596.45	3308.60
596.56	2817.39
596.66	2547.06
596.76	2510.30
596.86	2546.96
596.97	2692.46
597.07	2790.66
597.17	2891.12
597.27	2962.49
597.37	3124.38
597.48	3178.04
597.58	3325.18
597.68	3370.96
597.78	3549.74
597.89	3650.71
597.99	3813.73
598.09	3968.04
598.19	4134.54
598.29	4322.03
598.40	4533.49
598.50	4739.20
598.60	4905.91
598.70	4957.42
598.80	5147.57
598.91	5179.21
599.01	5257.65
599.11	5352.37
599.21	5549.89
599.31	5312.64
599.42	5204.50
599.52	5074.05
599.62	4907.55
599.72	4739.20
599.82	4815.70
599.93	4892.09
600.03	5071.69
600.13	5165.18
600.23	5232.05
600.33	5289.39
600.44	5324.31
600.54	5363.83
600.64	5493.57
600.74	5481.29
600.84	5522.55
600.95	5274.03
601.05	5125.55
601.15	4845.19
601.25	4677.66
601.35	4554.58
601.46	4840.48
601.56	4850.41
601.66	4758.66
601.76	4205.30
601.86	3838.00
601.96	3195.65
602.07	2682.22
602.17	2544.81
602.27	2585.87
602.37	2630.31
602.47	2735.37
602.57	2830.80
602.68	2909.45
602.78	2917.84
602.88	2989.22
602.98	3061.00
603.08	3132.37
603.18	3157.66
603.29	3287.40
603.39	3343.00
603.49	3450.93
603.59	3531.41
603.69	3708.05
603.79	3817.52
603.90	4040.44
604.00	4081.09
604.10	4278.21
604.20	4407.95
604.30	4446.86
604.40	4458.43
604.51	4546.59
604.61	4577.31
604.71	4752.62
604.81	4626.98
604.91	4583.87
605.01	4387.26
605.11	4258.96
605.22	3931.28
605.32	4021.29
605.42	3992.41
605.52	4172.43
605.62	4179.09
605.72	4222.30
605.83	4178.98
605.93	4378.35
606.03	4346.61
606.13	4432.83
606.23	4437.44
606.33	4487.92
606.43	4436.41
606.53	4308.11
606.64	3952.78
606.74	3846.29
606.84	3559.68
606.94	3574.63
607.04	3617.84
607.14	3845.06
607.24	3648.87
607.35	3266.31
607.45	2845.14
607.55	2334.58
607.65	1828.84
607.75	1620.46
607.85	1625.06
607.95	1692.54
608.05	1686.40
608.16	1741.29
608.26	1735.76
608.36	1746.51
608.46	1729.00
608.56	1743.23
608.66	1752.86
608.76	1735.96
608.86	1802.83
608.96	1818.70
609.07	1807.74
609.17	1844.20
609.27	1892.32
609.37	1944.65
609.47	2034.35
609.57	2120.06
609.67	2193.48
609.77	2301.00
609.87	2295.06
609.98	2378.82
610.08	2347.28
610.18	2428.99
610.28	2479.17
610.38	2551.36
610.48	2560.17
610.58	2539.69
610.68	2375.23
610.78	2367.66
610.88	2257.78
610.98	2211.40
611.09	2230.85
611.19	2333.87
611.29	2330.79
611.39	2396.12
611.49	2415.27
611.59	2459.20
611.69	2452.03
611.79	2545.01
611.89	2548.59
611.99	2598.05
612.09	2636.15
612.20	2621.50
612.30	2515.32
612.40	2463.30
612.50	2343.29
612.60	2255.94
612.70	2217.64
612.80	2353.83
612.90	2445.27
613.00	2372.26
613.10	2222.56
613.20	1990.83
613.30	1718.35
613.40	1456.82
613.50	1346.64
613.61	1359.54
613.71	1414.02
613.81	1459.79
613.91	1523.07
614.01	1510.17
614.11	1548.16
614.21	1552.05
614.31	1603.97
614.41	1629.77
614.51	1648.00
614.61	1680.15
614.71	1717.73
614.81	1775.28
614.91	1782.04
615.01	1820.34
615.11	1858.84
615.22	1936.05
615.32	1969.53
615.42	2045.41
615.52	2084.83
615.62	2136.85
615.72	2152.72
615.82	2132.45
615.92	2133.06
616.02	2199.72
616.12	2190.00
616.22	2192.56
616.32	2165.42
616.42	2144.74
616.52	2122.82
616.62	1988.58
616.72	2004.14
616.82	1978.13
616.92	1971.89
617.02	2021.14
617.12	2016.53
617.22	2038.96
617.32	2002.09
617.42	1977.83
617.52	1979.46
617.62	2042.03
617.72	2010.70
617.83	2054.42
617.93	2025.44
618.03	1989.29
618.13	1891.30
618.23	1833.85
618.33	1749.48
618.43	1777.02
618.53	1754.70
618.63	1722.24
618.73	1740.26
618.83	1737.60
618.93	1586.97
619.03	1438.29
619.13	1303.33
619.23	1201.24
619.33	1092.18
619.43	1071.29
619.53	1084.91
619.63	1056.34
619.73	1128.02
619.83	1105.19
619.93	1081.02
620.03	1127.71
620.13	1128.94
620.23	1150.34
620.33	1108.46
620.43	1183.32
620.53	1179.22
620.63	1241.79
620.73	1240.86
620.83	1338.55
620.93	1342.96
621.03	1452.93
621.13	1461.23
621.23	1528.81
621.33	1593.93
621.43	1621.89
621.53	1668.38
621.63	1756.95
621.73	1831.50
621.83	1887.10
621.93	1966.97
622.03	2064.76
622.13	2124.15
622.23	2209.45
622.33	2192.25
622.43	2325.16
622.53	2286.97
622.63	2263.01
622.73	2327.11
622.83	2330.59
622.93	2262.39
623.03	2243.34
623.13	2185.39
623.23	2179.86
623.33	2188.15
623.42	2206.58
623.52	2247.44
623.62	2371.55
623.72	2370.73
623.82	2341.65
623.92	2329.87
624.02	2211.60
624.12	2143.71
624.22	2074.29
624.32	2101.11
624.42	2124.15
624.52	2113.09
624.62	2116.17
624.72	2047.05
624.82	1974.24
624.92	1823.61
625.02	1811.33
625.12	1860.78
625.22	1924.89
625.32	2033.33
625.42	2098.55
625.52	2023.80
625.62	1963.39
625.72	1849.11
625.82	1782.35
625.91	1702.78
626.01	1703.60
626.11	1816.96
626.21	1901.54
626.31	1948.23
626.41	2054.32
626.51	2044.59
626.61	2160.20
626.71	2202.59
626.81	2232.59
626.91	2256.25
627.01	2342.57
627.11	2415.99
627.21	2592.93
627.31	2809.20
627.41	2970.27
627.51	3013.28
627.60	3002.01
627.70	2868.79
627.80	2680.59
627.90	2492.58
628.00	2366.94
628.10	2360.80
628.20	2520.33
628.30	2648.02
628.40	2741.72
628.50	2852.00
628.60	2995.15
628.70	3095.71
628.80	3386.93
628.89	3403.83
628.99	3598.69
629.09	3756.38
629.19	3895.03
629.29	3999.58
629.39	4143.96
629.49	4216.97
629.59	4300.73
629.69	4355.31
629.79	4416.04
629.89	4417.57
629.98	4427.09
630.08	4354.08
630.18	4364.84
630.28	4367.19
630.38	4539.02
630.48	4630.35
630.58	4795.11
630.68	4996.84
630.78	5205.42
630.88	5296.05
630.98	5368.24
631.07	5469.00
631.17	5589.93
631.27	5608.98
631.37	5815.72
631.47	5829.24
631.57	5896.41
631.67	5965.32
631.77	6084.62
631.87	6197.46
631.96	6481.21
632.06	6750.41
632.16	6686.21
632.26	6229.00
632.36	5702.67
632.46	4737.98
632.56	3681.33
632.66	2820.26
632.75	2349.12
632.85	1995.34
632.95	1863.55
633.05	1855.56
633.15	1874.30
633.25	1864.98
633.35	1940.76
633.45	1904.92
633.55	1953.86
633.64	1917.00
633.74	1899.18
633.84	1907.68
633.94	1941.37
634.04	1920.38
634.14	1889.46
634.24	1892.43
634.33	1987.76
634.43	2043.05
634.53	2184.88
634.63	2265.36
634.73	2391.21
634.83	2495.86
634.93	2662.77
635.02	2743.77
635.12	2936.17
635.22	3017.99
635.32	3198.52
635.42	3320.99
635.52	3491.68
635.62	3662.08
635.71	3895.85
635.81	4008.69
635.91	4168.74
636.01	4323.88
636.11	4526.52
636.21	4626.16
636.31	4780.57
636.40	4707.15
636.50	4770.23
636.60	4718.52
636.70	4897.41
636.80	4829.42
636.90	4914.92
636.99	4751.90
637.09	4642.54
637.19	4455.87
637.29	4334.42
637.39	4142.02
637.49	4307.60
637.58	4370.77
637.68	4530.62
637.78	4640.39
637.88	4771.15
637.98	4715.76
638.08	4826.96
638.17	4775.04
638.27	4658.62
638.37	4676.95
638.47	4820.10
638.57	4849.69
638.66	4919.94
638.76	4645.00
638.86	4520.07
638.96	4227.62
639.06	3930.36
639.16	3900.15
639.25	3991.18
639.35	4105.46
639.45	4353.78
639.55	4329.92
639.65	4146.73
639.74	3684.30
639.84	3276.65
639.94	2813.81
640.04	2437.90
640.14	2248.16
640.23	2295.26
640.33	2346.77
640.43	2464.42
640.53	2443.94
640.63	2562.62
640.73	2523.51
640.82	2610.55
640.92	2589.04
641.02	2602.15
641.12	2539.17
641.21	2575.12
641.31	2529.96
641.41	2578.60
641.51	2694.51
641.61	2834.80
641.70	2924.19
641.80	3148.44
641.90	3279.82
642.00	3506.74
642.10	3737.54
642.19	4026.61
642.29	4137.72
642.39	4504.20
642.49	4674.18
642.59	5025.31
642.68	5268.91
642.78	5534.02
642.88	5921.29
642.98	6248.05
643.07	6506.60
643.17	6845.75
643.27	7064.67
643.37	7535.81
643.46	7579.53
643.56	7878.43
643.66	7994.96
643.76	7994.55
643.86	8073.50
643.95	8229.05
644.05	8260.79
644.15	8505.62
644.25	8427.39
644.34	8151.33
644.44	7844.13
644.54	7609.54
644.64	7363.68
644.73	7395.22
644.83	7313.30
644.93	7640.15
645.03	7807.47
645.12	8046.88
645.22	8229.35
645.32	8405.68
645.42	8351.92
645.51	8306.87
645.61	8129.82
645.71	8275.02
645.81	8402.00
645.90	8696.08
646.00	8749.84
646.10	8631.16
646.20	8320.49
646.29	7874.85
646.39	7244.38
646.49	6999.55
646.59	7094.57
646.68	7257.18
646.78	7730.77
646.88	7971.00
646.98	7849.97
647.07	7246.43
647.17	6357.92
647.27	5653.11
647.37	4784.05
647.46	4235.10
647.56	4057.54
647.66	4169.56
647.75	4215.23
647.85	4379.58
647.95	4480.55
648.05	4486.08
648.14	4483.11
648.24	4579.26
648.34	4582.64
648.44	4679.81
648.53	4573.32
648.63	4556.01
648.73	4527.65
648.82	4588.88
648.92	4592.88
649.02	4778.22
649.12	5007.18
649.21	5149.41
649.31	5506.78
649.41	5762.47
649.50	6071.20
649.60	6485.61
649.70	6853.53
649.80	7241.82
649.89	7601.04
649.99	8117.12
650.09	8476.54
650.18	8979.63
650.28	9418.40
650.38	9945.14
650.47	10515.71
650.57	11115.04
650.67	11500.06
650.77	12041.34
650.86	12527.73
650.96	13003.88
651.06	13221.38
651.15	13608.85
651.25	13667.43
651.35	13844.06
651.44	13947.28
651.54	14429.27
651.64	14199.90
651.73	14590.04
651.83	14210.45
651.93	14030.33
652.03	13126.56
652.12	12684.09
652.22	12302.35
652.32	12381.10
652.41	12416.83
652.51	12977.98
652.61	13283.53
652.70	13637.94
652.80	13746.68
652.90	14218.54
652.99	14074.97
653.09	14179.83
653.19	13739.00
653.28	14076.51
653.38	14306.70
653.48	14659.26
653.57	14873.89
653.67	14861.29
653.77	14260.21
653.86	13401.70
653.96	12515.96
654.06	11712.33
654.15	11496.27
654.25	11854.05
654.35	12480.42
654.44	13210.63
654.54	13371.09
654.64	12759.66
654.73	11213.04
654.83	9842.85
654.93	8211.74
655.02	6799.26
655.12	5918.42
655.22	5879.00
655.31	6000.34
655.41	6207.80
655.51	6164.08
655.60	6411.88
655.70	6484.89
655.79	6445.37
655.89	6444.96
655.99	6524.32
656.08	6464.82
656.18	6395.91
656.28	6213.95
656.37	6253.37
656.47	6102.74
656.57	6303.85
656.66	6363.55
656.76	6741.09
656.85	6998.73
656.95	7340.74
657.05	7744.80
657.14	8164.53
657.24	8549.86
657.34	9172.75
657.43	9599.65
657.53	10202.67
657.63	10599.47
657.72	11180.68
657.82	11714.28
657.91	12389.70
658.01	13049.04
658.11	13807.10
658.20	14623.42
658.30	15207.40
658.39	15926.54
658.49	16815.36
658.59	17373.74
658.68	18025.61
658.78	18676.66
658.88	18987.03
658.97	18918.73
659.07	19356.17
659.16	19462.97
659.26	19711.60
659.36	19914.04
659.45	20208.13
659.55	20144.33
659.64	19995.85
659.74	18880.74
659.84	18382.36
659.93	17194.34
660.03	16934.45
660.12	16784.33
660.22	17194.75
660.32	17517.20
660.41	18174.80
660.51	18583.17
660.60	19016.93
660.70	19172.26
660.80	19543.15
660.89	19253.26
660.99	19267.60
661.08	19092.29
661.18	19763.62
661.28	20032.82
661.37	20416.81
661.47	20443.34
661.56	20018.69
661.66	18890.26
661.75	17566.35
661.85	16194.11
661.95	15598.46
662.04	15673.21
662.14	16414.88
662.23	17371.28
662.33	18052.13
662.43	17804.53
662.52	16567.45
662.62	14444.63
662.71	12465.58
662.81	10031.57
662.90	8299.39
663.00	7356.71
663.10	7333.57
663.19	7451.33
663.29	7656.13
663.38	7726.99
663.48	7930.25
663.57	7870.04
663.67	8011.04
663.77	7802.25
663.86	7744.39
663.96	7687.56
664.05	7582.71
664.15	7299.68
664.24	7243.26
664.34	6931.96
664.43	6840.63
664.53	6753.48
664.63	6818.92
664.72	6921.42
664.82	7239.16
664.91	7432.59
665.01	7890.62
665.10	8131.97
665.20	8739.91
665.29	9054.48
665.39	9611.01
665.48	10006.89
665.58	10476.90
665.68	10977.62
665.77	11430.64
665.87	11958.09
665.96	12693.92
666.06	13186.26
666.15	14117.88
666.25	14451.70
666.34	15030.25
666.44	15574.60
666.53	16588.96
666.63	16812.29
666.72	17362.78
666.82	17890.34
666.91	18316.01
667.01	18398.54
667.11	18461.41
667.20	18622.90
667.30	18842.13
667.39	19083.48
667.49	19403.68
667.58	19122.29
667.68	19064.44
667.77	17997.75
667.87	17540.85
667.96	16293.95
668.06	15930.64
668.15	15727.27
668.25	15948.35
668.34	16244.59
668.44	16575.03
668.53	16908.13
668.63	17366.88
668.72	17606.69
668.82	17769.71
668.91	17903.14
669.01	17789.68
669.10	17354.90
669.20	17957.51
669.29	18087.56
669.39	18445.03
669.48	18754.58
669.58	19017.54
669.67	18195.69
669.77	17116.41
669.86	15855.07
669.96	14961.23
670.05	14075.59
670.15	14600.38
670.24	15031.89
670.34	16208.96
670.43	16772.86
670.53	17011.66
670.62	15768.44
670.72	14089.82
670.81	11921.33
670.91	9924.97
671.00	7936.70
671.10	7170.76
671.19	6929.51
671.29	7115.46
671.38	7274.28
671.48	7434.13
671.57	7574.00
671.67	7771.12
671.76	7818.22
671.86	8048.01
671.95	7844.33
672.04	8056.81
672.14	8030.90
672.23	8023.53
672.33	7899.63
672.42	7901.58
672.52	7906.08
672.61	7968.95
672.71	7943.35
672.80	8237.03
672.90	8401.89
672.99	8736.74
673.09	8986.69
673.18	9509.44
673.28	9782.12
673.37	10459.28
673.46	11015.00
673.56	11739.06
673.65	12195.86
673.75	12875.37
673.84	13406.00
673.94	14297.79
674.03	15147.08
674.13	16370.54
674.22	17705.82
674.32	19355.15
674.41	19770.99
674.50	20031.90
674.60	19395.80
674.69	18649.93
674.79	17115.59
674.88	15914.05
674.98	14893.55
675.07	14802.00
675.17	14479.14
675.26	14511.39
675.35	14355.44
675.45	14643.39
675.54	14554.81
675.64	14922.11
675.73	14957.95
675.83	15279.79
675.92	15209.85
676.01	14736.67
676.11	13929.77
676.20	13293.37
676.30	12504.59
676.39	12302.15
676.49	12184.08
676.58	12296.41
676.67	12507.35
676.77	13045.25
676.86	13102.39
676.96	13399.96
677.05	13527.45
677.15	13905.50
677.24	13904.89
677.33	13905.40
677.43	13784.57
677.52	13960.70
677.62	14145.52
677.71	14489.69
677.80	14703.60
677.90	15096.29
677.99	14294.92
678.09	13649.81
678.18	12812.50
678.27	11677.83
678.37	10805.19
678.46	10772.21
678.56	11185.90
678.65	11778.28
678.74	12495.48
678.84	13230.19
678.93	12595.01
679.03	11779.92
679.12	10097.31
679.21	8377.11
679.31	6502.51
679.40	5142.24
679.50	4476.96
679.59	4336.06
679.68	4285.78
679.78	4414.09
679.87	4399.65
679.97	4440.51
680.06	4434.16
680.15	4474.50
680.25	4370.67
680.34	4267.56
680.44	4127.17
680.53	4006.65
680.62	3778.09
680.72	3601.56
680.81	3413.55
680.90	3266.61
681.00	3026.69
681.09	2925.93
681.19	2768.34
681.28	2776.94
681.37	2755.75
681.47	2758.41
681.56	2817.08
681.65	2915.28
681.75	2941.91
681.84	3096.53
681.94	3233.95
682.03	3342.90
682.12	3448.47
682.22	3581.79
682.31	3701.70
682.40	3852.23
682.50	4001.32
682.59	4219.53
682.68	4380.30
682.78	4627.18
682.87	4808.12
682.96	5012.61
683.06	5145.01
683.15	5403.36
683.25	5582.15
683.34	5824.12
683.43	5954.98
683.53	6178.72
683.62	6329.04
683.71	6478.65
683.81	6495.03
683.90	6616.07
683.99	6482.85
684.09	6639.62
684.18	6747.14
684.27	6820.96
684.37	6913.12
684.46	6925.00
684.55	6750.10
684.65	6468.51
684.74	6088.82
684.83	5851.56
684.93	5527.67
685.02	5547.33
685.11	5446.16
685.21	5648.81
685.30	5761.35
685.39	5930.41
685.49	6037.21
685.58	6139.61
685.67	6169.81
685.77	6322.80
685.86	6379.73
685.95	6265.35
686.05	6259.41
686.14	6394.99
686.23	6281.73
686.33	6498.41
686.42	6568.14
686.51	6631.22
686.61	6562.20
686.70	6215.38
686.79	5806.81
686.88	5431.52
686.98	4931.00
687.07	4794.60
687.16	4910.31
687.26	5163.54
687.35	5417.90
687.44	5837.94
687.54	5791.86
687.63	5632.73
687.72	4968.37
687.82	4278.21
687.91	3421.03
688.00	2659.49
688.09	2225.63
688.19	2050.63
688.28	1984.69
688.37	1971.99
688.47	1936.87
688.56	1915.67
688.65	1893.86
688.74	1871.13
688.84	1873.89
688.93	1842.46
689.02	1783.27
689.12	1789.41
689.21	1676.77
689.30	1637.66
689.39	1543.66
689.49	1471.67
689.58	1383.61
689.67	1307.22
689.77	1185.47
689.86	1112.97
689.95	1031.77
690.04	945.34
690.14	891.69
690.23	894.25
690.32	853.90
690.42	875.51
690.51	829.43
690.60	850.42
690.69	837.41
690.79	851.24
690.88	807.62
690.97	807.21
691.06	779.87
691.16	774.34
691.25	770.34
691.34	749.86
691.43	789.59
691.53	795.84
691.62	745.97
691.71	765.22
691.80	776.90
691.90	758.77
691.99	761.23
692.08	760.62
692.18	764.81
692.27	780.07
692.36	755.19
692.45	777.00
692.55	777.92
692.64	748.12
692.73	745.36
692.82	767.78
692.91	757.85
693.01	765.63
693.10	781.10
693.19	760.92
693.28	737.99
693.38	730.72
693.47	741.06
693.56	742.29
693.65	709.11
693.75	771.57
693.84	757.44
693.93	737.68
694.02	754.37
694.12	767.78
694.21	745.05
694.30	733.99
694.39	734.40
694.48	772.60
694.58	717.51
694.67	728.97
694.76	717.92
694.85	710.95
694.95	692.32
695.04	711.77
695.13	672.55
695.22	720.37
695.31	704.40
695.41	693.24
695.50	720.58
695.59	702.56
695.68	701.84
695.78	692.42
695.87	685.25
695.96	678.80
696.05	683.20
696.14	659.14
696.24	688.73
696.33	706.45
696.42	680.23
696.51	678.70
696.60	674.29
696.70	638.66
696.79	641.22
696.88	626.37
696.97	628.93
697.06	619.31
697.16	640.20
697.25	637.84
697.34	649.00
697.43	671.84
697.52	682.08
697.62	706.24
697.71	744.54
697.80	768.60
697.89	726.93
697.98	758.98
698.08	739.32
698.17	736.86
698.26	763.07
698.35	775.26
698.44	787.96
698.53	790.93
698.63	820.52
698.72	852.06
698.81	851.96
698.90	880.32
698.99	860.66
699.08	903.26
699.18	895.88
699.27	919.03
699.36	931.31
699.45	974.01
699.54	974.32
699.64	1020.61
699.73	1053.07
699.82	1112.56
699.91	1129.76
700.00	1190.28
700.09	1210.04
700.19	1225.61
700.28	1178.09
700.37	1140.41
700.46	1039.65
700.55	1005.25
700.64	949.34
700.73	929.88
700.83	873.05
700.92	870.59
701.01	878.99
701.10	869.26
701.19	876.12
701.28	865.68
701.38	872.33
701.47	889.64
701.56	873.97
701.65	934.59
701.74	899.57
701.83	893.53
701.92	905.20
702.02	905.41
702.11	928.34
702.20	960.91
702.29	948.31
702.38	958.24
702.47	988.55
702.56	1007.81
702.66	1018.76
702.75	1037.30
702.84	1029.72
702.93	1010.47
703.02	1009.44
703.11	1034.02
703.20	1008.83
703.29	1035.86
703.39	1039.75
703.48	1083.58
703.57	1114.20
703.66	1178.20
703.75	1191.51
703.84	1254.38
703.93	1246.70
704.02	1303.63
704.12	1337.73
704.21	1397.23
704.30	1464.50
704.39	1542.12
704.48	1615.34
704.57	1698.79
704.66	1746.92
704.75	1740.67
704.84	1734.42
704.94	1750.30
705.03	1758.90
705.12	1788.59
705.21	1793.30
705.30	1842.15
705.39	1891.20
705.48	1942.40
705.57	2008.95
705.66	2098.76
705.75	2181.80
705.85	2231.77
705.94	2269.25
706.03	2344.72
706.12	2339.91
706.21	2391.21
706.30	2422.44
706.39	2518.49
706.48	2631.74
706.57	2758.31
706.66	2828.76
706.75	2989.01
706.85	3156.84
706.94	3382.53
707.03	3583.95
707.12	3958.42
707.21	4344.15
707.30	4678.69
707.39	4708.69
707.48	4420.34
707.57	4117.44
707.66	3597.46
707.75	2949.79
707.84	2424.90
707.93	2005.37
708.03	1801.09
708.12	1645.03
708.21	1597.31
708.30	1542.22
708.39	1546.11
708.48	1546.32
708.57	1595.98
708.66	1587.99
708.75	1609.19
708.84	1656.09
708.93	1713.13
709.02	1677.18
709.11	1693.67
709.20	1681.48
709.29	1702.89
709.39	1714.25
709.48	1769.24
709.57	1825.35
709.66	1881.67
709.75	1927.96
709.84	1982.43
709.93	1965.33
710.02	2026.47
710.11	2022.88
710.20	2084.73
710.29	2100.29
710.38	2199.93
710.47	2219.90
710.56	2289.83
710.65	2359.77
710.74	2385.17
710.83	2459.20
710.92	2577.57
711.01	2685.91
711.10	2758.92
711.19	2791.28
711.28	2996.18
711.38	3021.16
711.47	3106.36
711.56	3225.35
711.65	3330.92
711.74	3495.99
711.83	3579.44
711.92	3689.62
712.01	3802.77
712.10	3925.24
712.19	4065.42
712.28	4148.26
712.37	4323.47
712.46	4483.62
712.55	4552.02
712.64	4653.70
712.73	4776.48
712.82	4934.58
712.91	5079.68
713.00	5150.03
713.09	5223.14
713.18	5252.12
713.27	5280.28
713.36	5176.04
713.45	5370.29
713.54	5242.90
713.63	5455.79
713.72	5629.87
713.81	5755.00
713.90	5851.87
713.99	6040.07
714.08	6308.15
714.17	6518.79
714.26	6684.16
714.35	6927.05
714.44	7002.21
714.53	7187.86
714.62	7392.76
714.71	7792.93
714.80	8098.18
714.89	8588.26
714.98	9178.59
715.07	10065.56
715.16	10913.63
715.25	12116.50
715.34	12651.33
715.43	12661.87
715.52	11897.16
715.61	10680.77
715.70	9138.86
715.79	7418.66
715.88	5673.49
715.97	4529.70
716.06	3842.91
716.15	3516.57
716.24	3341.06
716.33	3271.83
716.42	3154.90
716.51	3068.88
716.60	2814.73
716.69	2568.36
716.78	2284.82
716.87	2024.72
716.96	1817.06
717.05	1724.29
717.13	1686.91
717.22	1674.83
717.31	1665.92
717.40	1668.68
717.49	1658.14
717.58	1668.38
717.67	1623.42
717.76	1655.07
717.85	1674.73
717.94	1694.28
718.03	1630.29
718.12	1587.48
718.21	1540.38
718.30	1473.41
718.39	1422.93
718.48	1412.89
718.57	1396.71
718.66	1451.09
718.75	1470.03
718.84	1516.83
718.93	1495.84
719.02	1558.20
719.10	1540.07
719.19	1575.71
719.28	1585.95
719.37	1627.32
719.46	1720.19
719.55	1813.78
719.64	1820.75
719.73	1867.24
719.82	1924.68
719.91	2001.68
720.00	2038.65
720.09	2102.96
720.18	2166.55
720.27	2338.47
720.36	2392.54
720.44	2452.24
720.53	2452.24
720.62	2545.11
720.71	2642.08
720.80	2701.07
720.89	2854.15
720.98	3015.02
721.07	3130.73
721.16	3276.44
721.25	3355.90
721.34	3430.45
721.43	3462.60
721.52	3618.86
721.60	3818.03
721.69	4082.22
721.78	4180.72
721.87	4437.85
721.96	4556.94
722.05	4734.90
722.14	4823.99
722.23	5037.08
722.32	5168.25
722.41	5601.91
722.50	5815.72
722.58	5987.85
722.67	6129.98
722.76	6445.67
722.85	6487.04
722.94	6746.11
723.03	6728.81
723.12	7002.52
723.21	7004.16
723.30	7182.64
723.38	7044.30
723.47	7104.30
723.56	7184.79
723.65	7411.50
723.74	7449.69
723.83	7592.33
723.92	7281.96
724.01	7241.00
724.10	6818.20
724.18	6615.66
724.27	6273.44
724.36	6257.16
724.45	6166.13
724.54	6298.12
724.63	6341.94
724.72	6576.54
724.81	6738.33
724.89	6943.95
724.98	7100.72
725.07	7316.88
725.16	7403.61
725.25	7426.45
725.34	7174.14
725.43	7016.03
725.52	6767.72
725.60	6820.45
725.69	6742.43
725.78	7060.37
725.87	7396.75
725.96	7840.55
726.05	7904.85
726.14	7905.26
726.22	7305.21
726.31	6948.96
726.40	6334.67
726.49	5872.65
726.58	5583.79
726.67	5642.26
726.76	5685.47
726.84	6022.26
726.93	6240.67
727.02	6581.97
727.11	6944.46
727.20	7171.99
727.29	7215.61
727.38	6996.68
727.46	6448.95
727.55	5836.40
727.64	5028.17
727.73	4296.54
727.82	3742.25
727.91	3538.58
727.99	3412.94
728.08	3513.70
728.17	3558.65
728.26	3701.91
728.35	3709.69
728.44	3807.48
728.52	3775.84
728.61	3840.04
728.70	3761.61
728.79	3771.64
728.88	3694.43
728.97	3736.72
729.05	3562.85
729.14	3451.95
729.23	3245.93
729.32	3187.77
729.41	2931.87
729.49	2851.80
729.58	2813.19
729.67	2902.18
729.76	2884.05
729.85	2891.22
729.94	2861.22
730.02	2935.87
730.11	2982.25
730.20	3075.33
730.29	3062.23
730.38	3164.01
730.46	3263.54
730.55	3456.05
730.64	3520.56
730.73	3589.58
730.82	3546.47
730.90	3706.21
730.99	3772.05
731.08	3838.00
731.17	3881.62
731.26	4054.88
731.34	4276.06
731.43	4502.25
731.52	4482.18
731.61	4576.80
731.70	4755.49
731.78	4881.13
731.87	4939.29
731.96	5203.48
732.05	5440.02
732.13	5738.10
732.22	5878.80
732.31	6144.21
732.40	6207.91
732.49	6409.73
732.57	6414.44
732.66	6799.87
732.75	7219.50
732.84	7513.59
732.93	7647.32
733.01	8062.55
733.10	8262.22
733.19	8691.07
733.28	8639.77
733.36	9032.77
733.45	9409.49
733.54	10145.33
733.63	10383.51
733.71	10727.26
733.80	11041.62
733.89	11515.63
733.98	11701.68
734.07	12088.14
734.15	12197.80
734.24	12654.91
734.33	12893.91
734.42	13084.37
734.50	12689.93
734.59	12762.02
734.68	12566.54
734.77	12893.91
734.85	12988.12
734.94	13400.27
735.03	13066.04
735.12	13031.84
735.20	12306.76
735.29	11835.42
735.38	10912.29
735.47	10456.11
735.55	10028.08
735.64	10051.43
735.73	9944.12
735.82	10343.27
735.90	10545.30
735.99	10937.18
736.08	11164.50
736.17	11553.41
736.25	11762.41
736.34	12362.87
736.43	12321.50
736.51	12305.53
736.60	11902.59
736.69	11554.54
736.78	11221.54
736.86	11050.53
736.95	10981.62
737.04	11326.09
737.13	12133.50
737.21	13010.34
737.30	13282.61
737.39	13304.53
737.47	12569.10
737.56	11664.21
737.65	10608.27
737.74	9631.29
737.82	8857.06
737.91	8719.53
738.00	8803.09
738.08	9105.37
738.17	9414.51
738.26	9932.34
738.35	10540.49
738.43	11354.66
738.52	11904.54
738.61	11980.82
738.69	11395.72
738.78	10438.70
738.87	9075.47
738.96	7723.30
739.04	6214.05
739.13	5256.73
739.22	4701.83
739.30	4620.12
739.39	4581.31
739.48	4708.79
739.56	4767.36
739.65	4946.15
739.74	5049.27
739.82	5133.44
739.91	5097.70
740.00	5176.55
740.09	5125.25
740.17	5171.22
740.26	5155.66
740.35	5166.82
740.43	5001.86
740.52	4873.96
740.61	4646.02
740.69	4529.70
740.78	4225.47
740.87	4074.43
740.95	3956.98
741.04	4011.87
741.13	4035.22
741.21	4133.62
741.30	4165.57
741.39	4247.08
741.47	4315.79
741.56	4610.08
741.65	4859.42
741.73	5214.64
741.82	5528.39
741.91	5989.69
741.99	6381.47
742.08	6721.84
742.17	6593.03
742.25	6635.32
742.34	6470.86
742.43	6381.37
742.51	6073.97
742.60	6096.80
742.69	6034.65
742.77	6267.81
742.86	6471.07
742.95	6618.83
743.03	6575.93
743.12	6786.97
743.21	6920.19
743.29	7211.92
743.38	7287.59
743.47	7804.60
743.55	8292.43
743.64	8681.34
743.73	9024.89
743.81	9288.15
743.90	9496.84
743.98	9691.30
744.07	9973.51
744.16	10551.03
744.24	11227.37
744.33	11692.16
744.42	12067.35
744.50	12511.66
744.59	12817.11
744.68	13110.89
744.76	13029.69
744.85	13275.65
744.93	13895.98
745.02	14741.89
745.11	15460.42
745.19	16422.25
745.28	16588.55
745.37	17102.28
745.45	17444.39
745.54	18017.52
745.62	18451.07
745.71	18772.81
745.80	18972.69
745.88	19910.86
745.97	19879.53
746.05	19911.89
746.14	19573.77
746.23	19854.24
746.31	20019.61
746.40	20593.25
746.49	21016.15
746.57	22001.94
746.66	21991.70
746.74	21835.85
746.83	20936.79
746.92	20141.47
747.00	18798.51
747.09	17920.44
747.17	17025.17
747.26	16661.35
747.35	16453.38
747.43	16763.03
747.52	17081.49
747.60	17730.90
747.69	18000.31
747.78	18591.56
747.86	18942.17
747.95	19788.81
748.03	19902.26
748.12	20499.96
748.20	20238.95
748.29	19696.54
748.38	19139.39
748.46	18644.30
748.55	18150.43
748.63	18297.88
748.72	18606.82
748.81	20163.58
748.89	21687.37
748.98	22791.43
749.06	22565.24
749.15	22190.56
749.23	20477.33
749.32	19191.62
749.41	17345.17
749.49	15931.87
749.58	15018.06
749.66	15065.37
749.75	15266.28
749.83	16151.00
749.92	16719.00
750.01	17840.37
750.09	18918.93
750.18	20221.64
750.26	21263.75
750.35	21761.10
750.43	20747.87
750.52	19494.20
750.60	17413.67
750.69	15780.52
750.78	13660.77
750.86	12543.19
750.95	12062.64
751.03	11889.28
751.12	11356.40
751.20	10855.98
751.29	10125.06
751.37	9372.22
751.46	8582.53
751.55	7938.54
751.63	7353.64
751.72	7118.43
751.80	6849.74
751.89	6722.97
751.97	6504.45
752.06	6419.36
752.14	6353.11
752.23	6156.91
752.31	5866.51
752.40	5626.28
752.48	5184.43
752.57	4755.18
752.65	4271.04
752.74	3951.35
752.83	3720.44
752.91	3665.25
753.00	3683.99
753.08	3628.59
753.17	3669.76
753.25	3677.84
753.34	3668.22
753.42	3774.30
753.51	3834.51
753.59	4019.24
753.68	4015.55
753.76	4300.22
753.85	4487.61
753.93	4729.89
754.02	4772.69
754.10	4853.38
754.19	4860.55
754.27	5014.76
754.36	5032.27
754.44	5189.76
754.53	5318.17
754.61	5583.07
754.70	5934.91
754.78	6412.29
754.87	6452.54
754.95	6568.96
755.04	6533.12
755.12	6893.26
755.21	7008.15
755.29	7228.61
755.38	7423.68
755.46	8060.70
755.55	8417.05
755.63	8859.10
755.72	9089.19
755.80	9264.60
755.89	9423.42
755.97	9545.58
756.06	9809.16
756.14	10409.42
756.23	11006.91
756.31	11616.08
756.40	11898.19
756.48	12581.18
756.57	12897.19
756.65	13287.63
756.74	13302.68
756.82	13884.31
756.91	13992.64
756.99	15015.40
757.08	16062.94
757.16	16896.97
757.25	17171.50
757.33	17853.58
757.41	18191.08
757.50	18573.64
757.58	19001.36
757.67	19526.26
757.75	19764.23
757.84	20488.60
757.92	20934.95
758.01	21495.68
758.09	21027.93
758.18	20769.17
758.26	21012.26
758.35	21407.83
758.43	21569.82
758.51	22578.96
758.60	23245.98
758.68	23950.07
758.77	23550.51
758.85	23248.44
758.94	22113.86
759.02	20844.84
759.11	19564.35
759.19	18831.48
759.27	18152.48
759.36	18271.47
759.44	18490.29
759.53	19313.98
759.61	19317.87
759.70	19913.42
759.78	20485.42
759.87	21036.02
759.95	21369.84
760.03	22130.15
760.12	22372.63
760.20	23509.04
760.29	23537.00
760.37	23786.85
760.46	23350.02
760.54	23368.45
760.62	23418.01
760.71	24051.65
760.79	24679.66
760.88	25909.36
760.96	27146.13
761.05	28609.41
761.13	28765.67
761.21	28178.51
761.30	25424.30
761.38	23069.24
761.47	20212.94
761.55	17721.28
761.64	15314.81
761.72	14082.65
761.80	13430.78
761.89	13648.59
761.97	13991.01
762.06	14826.58
762.14	15473.22
762.22	16683.98
762.31	17941.13
762.39	19692.96
762.48	20707.52
762.56	20665.64
762.64	19351.15
762.73	17572.80
762.81	14928.16
762.90	12340.14
762.98	9503.50
763.06	7352.00
763.15	6406.35
763.23	6040.79
763.32	5915.35
763.40	5956.31
763.48	6001.27
763.57	6158.86
763.65	6255.83
763.74	6487.15
763.82	6565.48
763.90	6578.79
763.99	6518.38
764.07	6503.32
764.15	6364.17
764.24	6292.49
764.32	6202.07
764.41	6118.20
764.49	6020.52
764.57	5927.74
764.66	5583.99
764.74	5265.02
764.82	4729.99
764.91	4378.05
764.99	3885.61
765.08	3576.47
765.16	3282.59
765.24	3244.49
765.33	3225.65
765.41	3251.66
765.49	3168.62
765.58	3128.68
765.66	3074.41
765.74	3199.34
765.83	3193.30
765.91	3300.81
766.00	3357.44
766.08	3517.80
766.16	3641.49
766.25	3807.69
766.33	3766.73
766.41	3789.25
766.50	3706.11
766.58	3846.49
766.66	3852.54
766.75	3969.07
766.83	4057.23
766.91	4196.80
767.00	4347.12
767.08	4647.87
767.16	4899.97
767.25	5048.24
767.33	4925.26
767.41	4957.11
767.50	5027.87
767.58	5239.01
767.66	5276.08
767.75	5558.49
767.83	5740.35
767.91	6173.70
768.00	6473.94
768.08	6692.97
768.16	6750.92
768.25	6839.60
768.33	6814.10
768.41	7023.61
768.50	7150.59
768.58	7666.26
768.66	8023.33
768.75	8311.58
768.83	8654.82
768.91	9126.88
769.00	9226.61
769.08	9481.38
769.16	9506.47
769.25	9739.42
769.33	10067.71
769.41	10463.38
769.50	11098.15
769.58	11859.58
769.66	12151.83
769.74	12631.87
769.83	12803.59
769.91	13316.20
769.99	13484.75
770.08	13803.82
770.16	14085.52
770.24	14652.60
770.33	14902.04
770.41	15521.25
770.49	15556.99
770.58	15347.79
770.66	14738.92
770.74	14857.30
770.82	15061.58
770.91	15288.39
770.99	15406.46
771.07	16252.78
771.16	17039.20
771.24	17306.26
771.32	16988.00
771.40	16562.74
771.49	15585.45
771.57	14478.22
771.65	13401.70
771.74	12661.77
771.82	11904.64
771.90	11827.12
771.98	11832.75
772.07	12428.61
772.15	12380.28
772.23	12567.16
772.31	13047.81
772.40	13514.34
772.48	13569.94
772.56	13831.47
772.65	13931.00
772.73	14413.30
772.81	14702.47
772.89	15154.87
772.98	14785.52
773.06	14424.36
773.14	13909.39
773.22	13678.79
773.31	13261.72
773.39	13138.54
773.47	13193.32
773.55	14334.86
773.64	15482.23
773.72	16401.98
773.80	17252.29
773.88	16964.25
773.97	16048.70
774.05	15059.84
774.13	13417.78
774.21	12050.56
774.30	10666.74
774.38	9743.21
774.46	9589.72
774.54	9823.18
774.63	10186.29
774.71	10546.53
774.79	11135.63
774.87	12144.56
774.96	12964.05
775.04	14434.08
775.12	15454.48
775.20	15754.82
775.29	14942.18
775.37	13773.31
775.45	11943.45
775.53	9839.67
775.61	7536.22
775.70	5648.81
775.78	4530.52
775.86	4025.08
775.94	3789.56
776.03	3796.83
776.11	3876.29
776.19	4003.88
776.27	4059.48
776.36	4271.35
776.44	4394.63
776.52	4590.62
776.60	4615.51
776.68	4700.70
776.77	4677.25
776.85	4626.77
776.93	4399.65
777.01	4305.55
777.09	4031.43
777.18	3878.96
777.26	3711.84
777.34	3626.13
777.42	3426.76
777.50	3196.26
777.59	2801.42
777.67	2513.88
777.75	2208.73
777.83	1899.49
777.91	1672.68
778.00	1567.00
778.08	1528.50
778.16	1570.69
778.24	1508.12
778.32	1561.06
778.41	1590.86
778.49	1736.27
778.57	1830.06
778.65	1964.31
778.73	2068.55
778.82	2117.50
778.90	2138.59
778.98	2132.75
779.06	2051.66
779.14	1938.71
779.22	1844.81
779.31	1804.16
779.39	1706.98
779.47	1674.73
779.55	1610.52
779.63	1640.12
779.72	1619.84
779.80	1672.06
779.88	1684.97
779.96	1724.80
780.04	1780.91
780.12	1797.71
780.21	1834.26
780.29	1876.96
780.37	1926.01
780.45	1999.74
780.53	2076.95
780.61	2072.13
780.70	2146.37
780.78	2196.34
780.86	2268.64
780.94	2333.25
781.02	2319.43
781.10	2329.67
781.18	2315.74
781.27	2309.29
781.35	2299.97
781.43	2207.81
781.51	2183.95
781.59	2162.65
781.67	2154.57
781.75	2178.22
781.84	2080.33
781.92	2093.54
782.00	2057.90
782.08	2106.95
782.16	2201.16
782.24	2428.28
782.32	2759.84
782.41	3202.82
782.49	3789.05
782.57	4641.62
782.65	5430.50
782.73	6301.19
782.81	6724.40
782.89	6634.39
782.98	6260.54
783.06	5765.44
783.14	4992.33
783.22	4071.77
783.30	3232.10
783.38	2757.49
783.46	2463.50
783.54	2382.61
783.63	2257.37
783.71	2202.90
783.79	2160.71
783.87	2171.97
783.95	2203.10
784.03	2234.03
784.11	2200.24
784.19	2283.59
784.27	2297.00
784.36	2337.86
784.44	2302.53
784.52	2316.66
784.60	2268.64
784.68	2326.39
784.76	2269.25
784.84	2226.45
784.92	2229.83
785.00	2308.06
785.08	2365.20
785.17	2358.95
785.25	2364.69
785.33	2423.87
785.41	2373.39
785.49	2343.29
785.57	2293.42
785.65	2300.69
785.73	2316.97
785.81	2347.79
785.89	2375.95
785.98	2475.28
786.06	2479.48
786.14	2542.25
786.22	2499.75
786.30	2494.32
786.38	2456.54
786.46	2468.01
786.54	2462.07
786.62	2517.98
786.70	2567.33
786.78	2625.39
786.86	2569.59
786.94	2605.32
787.03	2529.34
787.11	2507.23
787.19	2436.57
787.27	2372.98
787.35	2374.72
787.43	2481.01
787.51	2483.98
787.59	2644.75
787.67	2715.91
787.75	2901.15
787.83	2991.57
787.91	3076.66
787.99	3111.58
788.07	3188.79
788.15	3247.46
788.23	3319.65
788.32	3380.99
788.40	3431.78
788.48	3466.90
788.56	3349.86
788.64	3110.15
788.72	2841.97
788.80	2570.71
788.88	2269.15
788.96	2029.64
789.04	1911.06
789.12	1791.46
789.20	1741.08
789.28	1743.44
789.36	1804.77
789.44	1841.12
789.52	1810.61
789.60	1702.78
789.68	1611.96
789.76	1515.29
789.84	1340.09
789.92	1211.99
790.00	1082.35
790.08	1029.82
790.16	1015.89
790.25	956.20
790.33	939.51
790.41	892.71
790.49	912.37
790.57	870.39
790.65	862.60
790.73	863.42
790.81	860.45
790.89	884.01
790.97	923.02
791.05	969.61
791.13	980.57
791.21	967.26
791.29	941.55
791.37	851.95
791.45	831.68
791.53	749.35
791.61	679.93
791.69	627.40
791.77	569.23
791.85	555.41
791.93	560.32
792.01	556.43
792.09	570.77
792.17	535.34
792.25	545.27
792.33	558.89
792.41	603.95
792.49	583.06
792.57	625.96
792.65	613.06
792.73	611.01
792.81	593.91
792.89	555.20
792.97	550.49
793.05	553.46
793.13	568.21
793.21	602.31
793.29	576.40
793.37	613.67
793.45	590.12
793.53	619.72
793.61	629.14
793.69	652.28
793.77	643.06
793.85	688.22
793.93	689.04
794.01	705.63
794.09	679.31
794.16	696.92
794.24	684.84
794.32	671.02
794.40	702.76
794.48	742.29
794.56	702.04
794.64	751.09
794.72	745.15
794.80	770.75
794.88	808.44
794.96	835.26
795.04	828.81
795.12	870.59
795.20	889.43
795.28	899.57
795.36	898.75
795.44	910.12
795.52	951.38
795.60	985.18
795.68	961.52
795.76	1015.79
795.84	1029.62
795.92	1065.25
796.00	1075.29
796.07	1112.87
796.15	1161.40
796.23	1166.83
796.31	1158.02
796.39	1221.00
796.47	1222.74
796.55	1291.45
796.63	1335.28
796.71	1369.48
796.79	1397.43
796.87	1434.50
796.95	1434.40
797.03	1515.29
797.11	1572.94
797.19	1607.86
797.27	1668.07
797.34	1753.57
797.42	1838.56
797.50	1947.52
797.58	1963.90
797.66	2000.15
797.74	2050.22
797.82	2032.51
797.90	2036.70
797.98	2074.39
798.06	2108.90
798.14	2254.81
798.22	2304.99
798.29	2394.69
798.37	2448.24
798.45	2522.38
798.53	2535.18
798.61	2601.02
798.69	2654.58
798.77	2740.08
798.85	2847.70
798.93	2909.86
799.01	3036.93
799.09	3246.95
799.16	3601.05
799.24	3969.17
799.32	4388.49
799.40	4653.19
799.48	4881.64
799.56	4936.53
799.64	4648.48
799.72	4271.65
799.80	3713.48
799.88	3144.04
799.95	2549.41
800.03	2150.67
800.11	1820.13
800.19	1763.40
800.27	1616.87
800.35	1591.89
800.43	1511.91
800.51	1507.10
800.58	1470.95
800.66	1418.53
800.74	1344.59
800.82	1315.92
800.90	1272.40
800.98	1270.97
801.06	1232.47
801.14	1171.95
801.21	1216.70
801.29	1254.38
801.37	1288.58
801.45	1339.06
801.53	1336.09
801.61	1434.09
801.69	1488.67
801.77	1510.99
801.84	1452.01
801.92	1473.62
802.00	1431.02
802.08	1396.31
802.16	1286.64
802.24	1274.04
802.32	1208.20
802.39	1216.49
802.47	1235.85
802.55	1237.69
802.63	1302.10
802.71	1410.33
802.79	1479.45
802.87	1541.30
802.94	1526.35
803.02	1519.90
803.10	1491.13
803.18	1423.24
803.26	1320.63
803.34	1243.22
803.41	1181.68
803.49	1175.43
803.57	1136.83
803.65	1165.91
803.73	1144.20
803.81	1176.46
803.88	1151.68
803.96	1207.99
804.04	1218.13
804.12	1206.15
804.20	1247.01
804.28	1263.39
804.35	1262.16
804.43	1332.92
804.51	1352.38
804.59	1343.77
804.67	1289.50
804.75	1228.37
804.82	1163.04
804.90	1086.65
804.98	950.56
805.06	887.49
805.14	855.64
805.21	918.10
805.29	926.81
805.37	967.67
805.45	1022.24
805.53	1036.27
805.60	1101.91
805.68	1073.03
805.76	1000.23
805.84	1017.74
805.92	968.48
805.99	986.92
806.07	975.14
806.15	986.71
806.23	978.31
806.31	983.95
806.38	943.70
806.46	979.65
806.54	901.82
806.62	904.28
806.70	873.87
806.77	834.14
806.85	795.33
806.93	772.90
807.01	750.68
807.09	777.72
807.16	748.63
807.24	796.76
807.32	792.77
807.40	787.85
807.48	789.80
807.55	805.77
807.63	807.62
807.71	801.68
807.79	815.81
807.86	843.35
807.94	865.68
808.02	860.66
808.10	876.84
808.17	897.11
808.25	851.14
808.33	881.65
808.41	878.17
808.49	910.73
808.56	950.56
808.64	965.72
808.72	995.01
808.80	1085.12
808.87	1135.91
808.95	1188.74
809.03	1178.09
809.11	1273.02
809.18	1255.10
809.26	1291.96
809.34	1260.01
809.42	1263.80
809.49	1226.43
809.57	1261.14
809.65	1216.49
809.73	1252.44
809.80	1250.49
809.88	1298.82
809.96	1299.03
810.04	1317.87
810.11	1362.10
810.19	1363.95
810.27	1417.19
810.35	1444.74
810.42	1537.31
810.50	1594.86
810.58	1630.80
810.66	1721.93
810.73	1710.26
810.81	1733.61
810.89	1777.02
810.96	1793.10
811.04	1776.82
811.12	1843.17
811.20	1938.71
811.27	2110.02
811.35	2250.51
811.43	2616.28
811.50	2884.67
811.58	3276.34
811.66	3331.02
811.74	3415.81
811.81	3270.81
811.89	2991.26
811.97	2600.10
812.05	2158.35
812.12	1727.05
812.20	1337.12
812.28	998.38
812.35	813.56
812.43	691.09
812.51	651.77
812.58	596.57
812.66	598.01
812.74	574.35
812.82	594.42
812.89	592.17
812.97	582.14
813.05	583.36
813.12	602.51
813.20	575.79
813.28	541.38
813.35	542.10
813.43	552.54
813.51	530.83
813.59	530.12
813.66	525.00
813.74	589.51
813.82	547.11
813.89	553.16
813.97	532.27
814.05	511.17
814.12	512.61
814.20	547.52
814.28	562.99
814.35	580.09
814.43	568.82
814.51	607.02
814.58	605.69
814.66	609.37
814.74	611.42
814.81	579.37
814.89	589.20
814.97	550.39
815.04	580.70
815.12	579.58
815.20	544.45
815.27	544.86
815.35	546.91
815.43	557.05
815.50	545.89
815.58	548.14
815.66	555.00
815.73	608.76
815.81	593.30
815.89	605.79
815.96	570.77
816.04	596.47
816.12	565.03
816.19	564.22
816.27	529.81
816.35	523.56
816.42	530.32
816.50	562.27
816.58	580.91
816.65	568.62
816.73	601.28
816.80	611.42
816.88	617.16
816.96	588.59
817.03	604.05
817.11	595.14
817.19	594.01
817.26	596.68
817.34	652.79
817.42	645.31
817.49	630.36
817.57	641.63
817.64	662.83
817.72	653.81
817.80	627.80
817.87	644.80
817.95	656.89
818.03	657.09
818.10	689.24
818.18	723.55
818.25	821.85
818.33	915.75
818.41	988.96
818.48	1076.21
818.56	1119.93
818.63	1189.36
818.71	1191.00
818.79	1133.04
818.86	1011.59
818.94	955.38
819.02	839.36
819.09	759.28
819.17	652.48
819.24	583.26
819.32	557.97
819.40	543.74
819.47	519.98
819.55	501.04
819.62	498.89
819.70	517.11
819.78	524.28
819.85	544.45
819.93	567.80
820.00	595.24
820.08	598.52
820.16	607.73
820.23	579.17
820.31	575.38
820.38	548.75
820.46	544.96
820.53	509.13
820.61	492.95
820.69	461.61
820.76	480.25
820.84	461.61
820.91	471.95
820.99	466.22
821.07	486.39
821.14	486.70
821.22	541.18
821.29	556.43
821.37	672.55
821.44	745.56
821.52	861.07
821.60	878.99
821.67	875.81
821.75	874.48
821.82	822.05
821.90	742.90
821.97	687.30
822.05	658.63
822.12	666.20
822.20	646.85
822.28	637.43
822.35	602.41
822.43	607.94
822.50	558.48
822.58	528.68
822.65	459.77
822.73	451.58
822.80	406.42
822.88	407.65
822.96	400.89
823.03	406.01
823.11	392.49
823.18	399.35
823.26	415.12
823.33	430.18
823.41	437.04
823.48	438.37
823.56	434.48
823.63	441.85
823.71	453.93
823.79	460.08
823.86	447.99
823.94	489.67
824.01	533.09
824.09	549.67
824.16	566.67
824.24	619.00
824.31	625.65
824.39	637.53
824.46	576.20
824.54	587.66
824.61	530.73
824.69	544.55
824.76	515.99
824.84	534.52
824.91	536.77
824.99	532.78
825.06	533.91
825.14	544.25
825.21	541.89
825.29	514.35
825.36	519.77
825.44	532.27
825.51	526.64
825.59	522.74
825.67	527.25
825.74	533.09
825.82	523.87
825.89	558.28
825.97	591.66
826.04	596.27
826.12	617.56
826.19	640.09
826.27	629.55
826.34	648.08
826.41	616.13
826.49	610.29
826.56	591.66
826.64	603.95
826.71	561.45
826.79	570.46
826.86	552.03
826.94	589.92
827.01	591.35
827.09	581.73
827.16	568.00
827.24	591.97
827.31	619.20
827.39	651.15
827.46	623.50
827.54	664.16
827.61	692.42
827.69	739.21
827.76	805.36
827.84	886.46
827.91	914.11
827.99	1012.93
828.06	1017.43
828.14	1082.04
828.21	1043.54
828.28	1001.56
828.36	895.58
828.43	851.65
828.51	730.20
828.58	650.33
828.66	564.01
828.73	528.38
828.81	487.31
828.88	477.48
828.96	469.60
829.03	508.10
829.11	494.58
829.18	539.95
829.25	546.50
829.33	567.18
829.40	545.07
829.48	566.67
829.55	555.31
829.63	567.29
829.70	546.19
829.78	582.24
829.85	547.83
829.92	552.75
830.00	536.98
830.07	546.50
830.15	534.72
830.22	526.12
830.30	569.03
830.37	536.36
830.44	553.77
830.52	555.51
830.59	565.44
830.67	557.76
830.74	567.59
830.82	552.03
830.89	554.49
830.96	578.14
831.04	567.59
831.11	598.52
831.19	575.79
831.26	594.93
831.34	598.93
831.41	613.57
831.48	572.92
831.56	593.91
831.63	573.43
831.71	583.26
831.78	552.64
831.85	580.70
831.93	569.54
832.00	573.02
832.08	600.46
832.15	583.98
832.22	561.66
832.30	546.30
832.37	534.21
832.45	544.55
832.52	529.50
832.59	525.41
832.67	518.75
832.74	533.60
832.82	527.86
832.89	556.84
832.96	594.93
833.04	588.79
833.11	588.79
833.19	615.31
833.26	606.81
833.33	631.90
833.41	624.22
833.48	601.59
833.56	556.95
833.63	599.34
833.70	568.21
833.78	571.28
833.85	566.26
833.92	572.61
834.00	557.25
834.07	536.88
834.15	521.31
834.22	515.88
834.29	471.03
834.37	470.32
834.44	454.96
834.51	481.78
834.59	485.16
834.66	513.32
834.73	534.52
834.81	533.29
834.88	560.84
834.96	565.65
835.03	596.68
835.10	600.87
835.18	580.70
835.25	579.88
835.32	549.67
835.40	539.23
835.47	515.88
835.54	533.50
835.62	524.28
835.69	515.06
835.76	548.04
835.84	553.98
835.91	548.75
835.98	570.97
836.06	581.73
836.13	582.54
836.21	564.22
836.28	597.90
836.35	602.31
836.43	592.78
836.50	621.05
836.57	617.16
836.65	619.82
836.72	613.06
836.79	598.83
836.87	619.51
836.94	597.19
837.01	641.73
837.08	612.14
837.16	621.97
837.23	630.57
837.30	619.82
837.38	634.77
837.45	633.54
837.52	636.92
837.60	616.95
837.67	608.14
837.74	653.92
837.82	683.71
837.89	685.66
837.96	736.24
838.04	746.08
838.11	742.29
838.18	721.70
838.26	708.80
838.33	686.89
838.40	668.87
838.47	682.08
838.55	663.54
838.62	688.02
838.69	680.23
838.77	719.45
838.84	717.40
838.91	776.69
838.99	768.40
839.06	738.91
839.13	781.61
839.20	805.67
839.28	800.96
839.35	837.21
839.42	878.07
839.50	965.51
839.57	1021.53
839.64	1150.55
839.71	1234.62
839.79	1327.70
839.86	1415.66
839.93	1481.30
840.01	1459.18
840.08	1461.23
840.15	1398.76
840.22	1326.06
840.30	1196.32
840.37	1089.31
840.44	930.19
840.51	803.62
840.59	677.47
840.66	586.03
840.73	529.50
840.81	497.45
840.88	467.76
840.95	461.41
841.02	477.07
841.10	474.82
841.17	465.20
841.24	453.01
841.31	445.02
841.39	423.42
841.46	465.40
841.53	498.78
841.60	519.16
841.68	512.20
841.75	540.66
841.82	557.56
841.89	523.67
841.97	505.64
842.04	508.20
842.11	495.81
842.18	532.57
842.26	535.13
842.33	552.44
842.40	549.06
842.47	563.81
842.55	546.60
842.62	552.75
842.69	563.40
842.76	566.98
842.84	596.68
842.91	637.74
842.98	652.59
843.05	658.63
843.12	699.07
843.20	704.50
843.27	713.72
843.34	695.80
843.41	679.62
843.49	677.78
843.56	660.57
843.63	659.14
843.70	666.20
843.77	710.44
843.85	726.52
843.92	717.20
843.99	764.92
844.06	790.11
844.14	835.37
844.21	848.06
844.28	870.80
844.35	852.67
844.42	878.48
844.50	880.42
844.57	883.39
844.64	900.59
844.71	931.21
844.78	931.72
844.86	973.71
844.93	984.15
845.00	999.72
845.07	1002.38
845.14	1005.86
845.22	1012.72
845.29	1023.37
845.36	1017.23
845.43	1050.61
845.50	1030.85
845.57	1087.37
845.65	1111.33
845.72	1191.51
845.79	1167.14
845.86	1270.46
845.93	1306.40
846.01	1321.25
846.08	1363.44
846.15	1358.52
846.22	1336.61
846.29	1324.01
846.36	1273.12
846.44	1259.30
846.51	1324.73
846.58	1375.83
846.65	1474.44
846.72	1534.95
846.80	1645.44
846.87	1755.62
846.94	1893.04
847.01	1975.57
847.08	2040.90
847.15	2112.58
847.22	2117.50
847.30	2143.20
847.37	2092.00
847.44	2130.50
847.51	2054.42
847.58	2037.32
847.65	1991.55
847.73	2025.24
847.80	2017.35
847.87	2008.55
847.94	2024.42
848.01	2033.53
848.08	2064.15
848.15	2073.47
848.23	2038.96
848.30	2026.77
848.37	2012.33
848.44	2001.28
848.51	1989.60
848.58	1987.04
848.65	1953.86
848.73	1974.75
848.80	1975.16
848.87	2066.09
848.94	2127.33
849.01	2207.92
849.08	2193.37
849.15	2247.34
849.23	2274.47
849.30	2274.27
849.37	2205.97
849.44	2208.43
849.51	2087.80
849.58	2006.80
849.65	1942.40
849.72	1909.53
849.79	1847.68
849.87	1825.97
849.94	1793.30
850.01	1844.71
850.08	1847.68
850.15	1942.60
850.22	1982.74
850.29	2071.42
850.36	2052.37
850.44	2142.99
850.51	2166.75
850.58	2245.09
850.65	2240.58
850.72	2259.32
850.79	2276.83
850.86	2402.06
850.93	2489.51
851.00	2503.23
851.07	2487.87
851.15	2468.11
851.22	2420.80
851.29	2370.93
851.36	2281.23
851.43	2175.97
851.50	2096.30
851.57	2152.62
851.64	2153.85
851.71	2184.67
851.78	2251.74
851.85	2430.73
851.92	2565.18
852.00	2742.54
852.07	2832.75
852.14	2913.44
852.21	2945.49
852.28	2984.30
852.35	2869.82
852.42	2791.48
852.49	2655.19
852.56	2529.24
852.63	2398.48
852.70	2399.81
852.77	2342.77
852.84	2363.87
852.92	2344.82
852.99	2328.75
853.06	2402.27
853.13	2440.15
853.20	2498.93
853.27	2652.94
853.34	2748.89
853.41	2900.23
853.48	3008.98
853.55	3173.23
853.62	3207.53
853.69	3311.98
853.76	3390.82
853.83	3277.67
853.90	3228.83
853.97	3141.99
854.04	3008.57
854.11	2836.03
854.18	2562.93
854.26	2348.51
854.33	2069.27
854.40	1825.25
854.47	1642.78
854.54	1533.62
854.61	1361.59
854.68	1319.51
854.75	1245.98
854.82	1265.64
854.89	1318.18
854.96	1359.24
855.03	1439.11
855.10	1626.09
855.17	1789.31
855.24	2021.55
855.31	2275.50
855.38	2407.49
855.45	2443.23
855.52	2444.46
855.59	2421.21
855.66	2350.15
855.73	2180.47
855.80	1988.17
855.87	1779.89
855.94	1640.83
856.01	1566.90
856.08	1469.93
856.15	1336.91
856.22	1228.68
856.29	1101.60
856.36	1021.94
856.43	944.11
856.50	896.60
856.57	817.86
856.64	824.00
856.71	797.89
856.78	780.17
856.85	725.90
856.92	744.23
856.99	705.73
857.06	659.24
857.13	637.23
857.20	593.81
857.27	609.99
857.34	633.33
857.41	667.13
857.48	707.68
857.55	743.92
857.62	786.73
857.69	766.04
857.76	783.96
857.83	717.92
857.90	700.10
857.97	657.40
858.04	651.87
858.11	636.71
858.18	712.18
858.25	724.78
858.32	770.75
858.39	775.36
858.46	810.89
858.53	791.54
858.60	769.63
858.67	738.70
858.74	737.99
858.81	745.05
858.88	812.63
858.95	911.35
859.02	983.74
859.09	1019.79
859.16	1072.01
859.23	1107.64
859.29	1134.88
859.36	1056.65
859.43	1006.78
859.50	984.15
859.57	975.65
859.64	980.87
859.71	1017.23
859.78	1039.75
859.85	1080.92
859.92	1100.37
859.99	1086.04
860.06	1070.47
860.13	1062.90
860.20	1077.23
860.27	1126.38
860.34	1185.36
860.41	1259.30
860.48	1296.88
860.54	1385.86
860.61	1391.70
860.68	1403.58
860.75	1380.54
860.82	1386.37
860.89	1407.06
860.96	1367.84
861.03	1368.04
861.10	1455.70
861.17	1410.23
861.24	1433.78
861.31	1469.72
861.38	1528.71
861.45	1510.99
861.51	1563.11
861.58	1618.30
861.65	1669.61
861.72	1733.30
861.79	1761.15
861.86	1791.46
861.93	1818.29
862.00	1837.54
862.07	1874.10
862.14	1892.12
862.21	1931.44
862.27	1999.53
862.34	2020.53
862.41	2078.18
862.48	2174.02
862.55	2244.68
862.62	2364.07
862.69	2335.61
862.76	2423.98
862.83	2470.36
862.90	2551.97
862.96	2536.61
863.03	2603.69
863.10	2511.12
863.17	2607.47
863.24	2624.68
863.31	2742.13
863.38	2785.75
863.45	2902.69
863.52	2986.35
863.58	3077.99
863.65	3130.01
863.72	3176.30
863.79	3143.94
863.86	3183.67
863.93	3113.42
864.00	3115.57
864.07	3137.49
864.13	3208.45
864.20	3316.38
864.27	3520.56
864.34	3595.93
864.41	3771.74
864.48	3871.17
864.55	4052.11
864.62	4134.95
864.68	4175.30
864.75	4166.08
864.82	4268.99
864.89	4278.41
864.96	4289.68
865.03	4323.57
865.10	4475.22
865.16	4625.13
865.23	4747.81
865.30	4819.59
865.37	4970.32
865.44	5124.53
865.51	5329.53
865.58	5338.64
865.64	5420.36
865.71	5472.79
865.78	5662.63
865.85	5727.25
865.92	5711.38
865.99	5650.14
866.05	5612.46
866.12	5550.40
866.19	5633.65
866.26	5609.08
866.33	5676.76
866.40	5489.79
866.46	5540.68
866.53	5536.38
866.60	5825.14
866.67	5933.38
866.74	6025.64
866.81	6025.53
866.87	6149.85
866.94	6082.67
867.01	6244.56
867.08	6070.08
867.15	6101.21
867.21	5853.50
867.28	5677.99
867.35	5442.68
867.42	5250.58
867.49	5134.97
867.56	5146.96
867.62	5035.96
867.69	5054.59
867.76	4988.54
867.83	5101.29
867.90	5203.58
867.96	5419.85
868.03	5555.42
868.10	5745.58
868.17	5638.98
868.24	5744.25
868.30	5786.64
868.37	6034.24
868.44	6081.85
868.51	6036.39
868.58	6052.36
868.64	6185.28
868.71	6375.12
868.78	6577.67
868.85	6560.77
868.92	6462.57
868.98	6225.93
869.05	6108.78
869.12	5943.72
869.19	5664.78
869.25	5225.39
869.32	4940.52
869.39	4767.26
869.46	4798.29
869.53	4734.70
869.59	4720.98
869.66	4769.62
869.73	4920.76
869.80	5181.57
869.86	5581.12
869.93	5819.41
870.00	6032.09
870.07	6173.70
870.14	6319.93
870.20	6255.32
870.27	6094.86
870.34	5795.96
870.41	5553.37
870.47	5112.65
870.54	4876.21
870.61	4609.88
870.68	4516.28
870.74	4391.25
870.81	4252.61
870.88	4122.05
870.95	4015.45
871.01	3998.45
871.08	3956.88
871.15	3928.31
871.22	3936.61
871.28	3926.78
871.35	3986.88
871.42	4068.80
871.49	4262.44
871.55	4340.46
871.62	4561.65
871.69	4777.40
871.76	5018.96
871.82	5139.07
871.89	5337.21
871.96	5333.22
872.02	5313.45
872.09	5094.22
872.16	4921.78
872.23	4531.03
872.29	4250.25
872.36	3832.98
872.43	3482.06
872.50	3165.03
872.56	2938.53
872.63	2706.29
872.70	2518.90
872.76	2349.94
872.83	2200.34
872.90	2007.01
872.97	1950.69
873.03	1889.56
873.10	1861.50
873.17	1872.46
873.23	1872.66
873.30	1808.25
873.37	1862.12
873.44	1789.62
873.50	1823.31
873.57	1732.68
873.64	1726.34
873.70	1710.57
873.77	1747.43
873.84	1723.47
873.91	1761.66
873.97	1735.35
874.04	1815.01
874.11	1823.82
874.17	1885.77
874.24	1893.76
874.31	1878.40
874.37	1814.91
874.44	1767.09
874.51	1696.54
874.57	1629.36
874.64	1532.19
874.71	1446.58
874.77	1346.13
874.84	1311.21
874.91	1234.11
874.98	1200.83
875.04	1147.78
875.11	1060.34
875.18	997.87
875.24	922.30
875.31	881.55
875.38	833.83
875.44	826.66
875.51	821.65
875.58	822.77
875.64	825.64
875.71	832.09
875.78	885.34
875.84	878.07
875.91	916.57
875.98	855.95
876.04	854.51
876.11	831.99
876.18	818.78
876.24	821.44
876.31	817.75
876.37	847.04
876.44	878.78
876.51	901.11
876.57	930.60
876.64	911.04
876.71	906.94
876.77	872.23
876.84	880.83
876.91	828.10
876.97	810.48
877.04	777.82
877.11	830.04
877.17	864.45
877.24	959.68
877.31	1008.73
877.37	1018.15
877.44	1060.34
877.50	1059.82
877.57	1070.78
877.64	1048.46
877.70	978.21
877.77	954.56
877.84	944.01
877.90	979.85
877.97	1019.68
878.03	1060.95
878.10	1068.83
878.17	1117.68
878.23	1094.54
878.30	1100.48
878.37	1075.59
878.43	1043.75
878.50	1030.03
878.56	1069.76
878.63	1103.96
878.70	1155.36
878.76	1215.26
878.83	1291.04
878.89	1303.22
878.96	1320.63
879.03	1356.37
879.09	1359.34
879.16	1364.87
879.22	1353.40
879.29	1362.21
879.36	1409.21
879.42	1374.80
879.49	1397.74
879.55	1422.72
879.62	1431.53
879.69	1449.86
879.75	1480.48
879.82	1499.01
879.88	1521.03
879.95	1516.52
880.02	1547.75
880.08	1590.66
880.15	1681.48
880.21	1702.07
880.28	1762.69
880.34	1772.31
880.41	1826.58
880.48	1781.02
880.54	1825.25
880.61	1843.17
880.67	1913.11
880.74	1909.94
880.80	1943.62
880.87	1977.83
880.94	1992.57
881.00	2042.95
881.07	2103.16
881.13	2120.16
881.20	2144.53
881.26	2140.13
881.33	2172.89
881.40	2238.33
881.46	2279.80
881.53	2296.28
881.59	2266.69
881.66	2305.40
881.72	2395.30
881.79	2385.37
881.85	2500.67
881.92	2554.53
881.99	2627.34
882.05	2663.49
882.12	2804.90
882.18	2850.26
882.25	2865.93
882.31	2894.19
882.38	2960.65
882.44	2928.70
882.51	3000.27
882.57	2997.30
882.64	3014.00
882.71	3028.95
882.77	3107.69
882.84	3148.85
882.90	3299.38
882.97	3348.53
883.03	3479.91
883.10	3577.70
883.16	3630.54
883.23	3695.05
883.29	3814.85
883.36	3787.72
883.42	3835.85
883.49	3777.89
883.55	3895.34
883.62	3891.76
883.68	3936.61
883.75	3903.02
883.81	4049.24
883.88	4088.46
883.94	4194.96
884.01	4236.02
884.07	4297.36
884.14	4293.67
884.20	4432.32
884.27	4508.71
884.34	4679.51
884.40	4660.87
884.47	4729.17
884.53	4777.71
884.60	4875.60
884.66	4861.47
884.73	4924.96
884.79	4854.40
884.86	4856.66
884.92	4804.13
884.98	4781.09
885.05	4762.86
885.11	4741.87
885.18	4739.72
885.24	4747.70
885.31	4685.24
885.37	4774.74
885.44	4817.44
885.50	4979.94
885.57	4998.48
885.63	5030.53
885.70	5131.19
885.76	5139.58
885.83	5174.81
885.89	5243.72
885.96	5184.74
886.02	5100.88
886.09	4970.52
886.15	4871.09
886.22	4716.47
886.28	4596.15
886.35	4380.09
886.41	4263.97
886.47	4127.37
886.54	4063.89
886.60	3904.66
886.67	3858.27
886.73	3727.92
886.80	3762.43
886.86	3723.10
886.93	3775.12
886.99	3775.94
887.06	3769.29
887.12	3766.21
887.19	3831.95
887.25	3833.18
887.31	3917.56
887.38	3896.16
887.44	3965.89
887.51	3938.96
887.57	4066.34
887.64	4075.77
887.70	4162.91
887.77	4220.66
887.83	4405.28
887.89	4428.02
887.96	4434.57
888.02	4404.46
888.09	4370.47
888.15	4272.37
888.22	4227.21
888.28	4131.37
888.34	4032.66
888.41	3826.42
888.47	3763.24
888.54	3709.18
888.60	3700.68
888.67	3619.58
888.73	3656.96
888.79	3689.72
888.86	3808.81
888.92	3839.74
888.99	4078.43
889.05	4189.94
889.11	4351.11
889.18	4408.87
889.24	4553.76
889.31	4501.74
889.37	4537.99
889.44	4384.19
889.50	4270.94
889.56	4052.11
>>>>>End Processed Spectral Data<<<<<
