SpectraSuite Data File
++++++++++++++++++++++++++++++++++++
Date: Wed Jul 12 16:37:29 CDT 2017
User: Owner
Dark Spectrum Present: Yes
Reference Spectrum Present: Yes
Number of Sampled Component Spectra: 1
Spectrometers: USB4H04489
Integration Time (usec): 50000 (USB4H04489)
Spectra Averaged: 20 (USB4H04489)
Boxcar Smoothing: 0 (USB4H04489)
Correct for Electrical Dark: No (USB4H04489)
Strobe/Lamp Enabled: No (USB4H04489)
Correct for Detector Non-linearity: No (USB4H04489)
Correct for Stray Light: No (USB4H04489)
Number of Pixels in Processed Spectrum: 3648
>>>>>Begin Processed Spectral Data<<<<<
580.28	2.76
580.38	2.76
580.48	2.76
580.59	-7.58
580.69	34.51
580.79	-4.30
580.90	4.51
581.00	-1.74
581.11	-5.84
581.21	8.40
581.31	4.92
581.42	22.12
581.52	0.20
581.62	-6.76
581.73	16.79
581.83	-2.46
581.93	36.86
582.04	134.45
582.14	5800.36
582.25	9002.67
582.35	9170.80
582.45	9405.09
582.56	9722.94
582.66	10052.45
582.76	10459.49
582.87	10769.76
582.97	11129.28
583.07	11102.96
583.18	11466.07
583.28	11538.67
583.38	11585.56
583.49	11421.62
583.59	11437.39
583.70	11064.66
583.80	10743.13
583.90	10476.79
584.01	10534.55
584.11	10454.98
584.21	10804.67
584.32	10783.58
584.42	11148.53
584.52	11131.12
584.63	11201.16
584.73	11116.17
584.83	11376.26
584.94	11216.42
585.04	11000.97
585.14	10666.95
585.25	10304.25
585.35	9824.82
585.45	9681.57
585.56	9507.80
585.66	9988.25
585.76	9673.79
585.87	9004.30
585.97	8379.16
586.07	7651.72
586.18	7035.08
586.28	6908.52
586.38	7026.68
586.49	7515.84
586.59	7758.42
586.69	8041.76
586.80	8188.70
586.90	8651.75
587.00	8755.68
587.11	9067.48
587.21	9248.63
587.31	9524.59
587.41	9742.08
587.52	10146.15
587.62	10416.48
587.72	10723.06
587.83	11088.11
587.93	11475.59
588.03	11776.95
588.14	11902.79
588.24	12128.69
588.34	12364.30
588.45	12333.28
588.55	12605.76
588.65	12388.27
588.75	12047.38
588.86	11723.09
588.96	11518.80
589.06	11151.09
589.17	11512.66
589.27	11570.20
589.37	11724.11
589.48	12106.57
589.58	12181.42
589.68	12297.54
589.78	12478.89
589.89	12326.11
589.99	12615.79
590.09	12731.10
590.20	12322.22
590.30	11898.60
590.40	11570.10
590.50	10954.79
590.61	10858.33
590.71	10827.10
590.81	11416.71
590.92	11137.26
591.02	10671.15
591.12	9799.33
591.22	8798.38
591.33	7928.51
591.43	7683.06
591.53	7534.07
591.64	7822.32
591.74	8113.34
591.84	8520.37
591.94	8675.50
592.05	8849.78
592.15	9119.71
592.25	9514.04
592.35	9558.69
592.46	9934.18
592.56	10107.85
592.66	10696.23
592.76	10928.99
592.87	11269.97
592.97	11380.36
593.07	11923.38
593.18	11817.80
593.28	11983.07
593.38	11949.80
593.48	12069.50
593.59	12099.81
593.69	12466.50
593.79	12451.85
593.89	12324.98
594.00	11947.95
594.10	11760.36
594.20	11325.98
594.30	11243.14
594.41	11320.97
594.51	11504.36
594.61	11620.38
594.71	11989.22
594.82	12325.90
594.92	12419.91
595.02	12544.53
595.12	12586.20
595.23	12771.24
595.33	12870.97
595.43	12734.37
595.53	12453.19
595.64	12048.00
595.74	11618.23
595.84	11035.07
595.94	11044.49
596.04	11092.11
596.15	10955.51
596.25	9946.06
596.35	9310.58
596.45	8136.48
596.56	7130.92
596.66	6521.76
596.76	6521.45
596.86	6686.11
596.97	7009.38
597.07	7195.54
597.17	7482.77
597.27	7686.85
597.37	8073.30
597.48	8139.14
597.58	8497.02
597.68	8505.93
597.78	8936.41
597.89	9080.08
597.99	9526.02
598.09	9730.10
598.19	10096.28
598.29	10337.33
598.40	10870.11
598.50	11332.33
598.60	11466.07
598.70	11736.40
598.80	11940.27
598.91	12127.35
599.01	12255.86
599.11	12347.00
599.21	12789.77
599.31	12161.96
599.42	11863.68
599.52	11615.05
599.62	11302.33
599.72	10933.90
599.82	11063.13
599.93	11261.37
600.03	11525.46
600.13	11718.27
600.23	11985.74
600.33	12115.27
600.44	12195.96
600.54	12206.92
600.64	12518.62
600.74	12335.02
600.84	12491.38
600.95	11894.40
601.05	11504.26
601.15	10824.03
601.25	10436.55
601.35	10115.02
601.46	10627.73
601.56	10564.96
601.66	10339.38
601.76	9218.42
601.86	8420.63
601.96	7168.81
602.07	6317.37
602.17	6001.06
602.27	6127.22
602.37	6295.97
602.47	6528.72
602.57	6771.10
602.68	6921.32
602.78	6989.31
602.88	7171.99
602.98	7390.10
603.08	7457.58
603.18	7549.63
603.29	7821.70
603.39	7890.31
603.49	8101.66
603.59	8149.17
603.69	8458.83
603.79	8664.24
603.90	9021.30
604.00	9096.16
604.10	9554.39
604.20	9731.54
604.30	9835.78
604.40	9793.08
604.51	9892.00
604.61	9930.81
604.71	10269.13
604.81	9975.35
604.91	9873.77
605.01	9394.14
605.11	9198.14
605.22	8579.25
605.32	8731.11
605.42	8664.85
605.52	8991.81
605.62	9020.79
605.72	9223.23
605.83	9126.88
605.93	9521.11
606.03	9458.75
606.13	9642.25
606.23	9583.47
606.33	9728.67
606.43	9504.21
606.53	9195.17
606.64	8497.02
606.74	8294.79
606.84	7637.08
606.94	7603.39
607.04	7753.00
607.14	8019.74
607.24	7674.87
607.35	6862.33
607.45	6058.20
607.55	5154.63
607.65	4154.51
607.75	3777.68
607.85	3834.10
607.95	3967.73
608.05	4022.31
608.16	4153.79
608.26	4093.28
608.36	4248.20
608.46	4210.42
608.56	4312.92
608.66	4272.88
608.76	4291.21
608.86	4360.54
608.96	4391.15
609.07	4369.85
609.17	4455.05
609.27	4521.40
609.37	4624.83
609.47	4757.64
609.57	4964.89
609.67	5032.17
609.77	5180.85
609.87	5274.44
609.98	5346.84
610.08	5320.93
610.18	5454.87
610.28	5543.65
610.38	5676.35
610.48	5661.30
610.58	5631.20
610.68	5391.07
610.78	5283.76
610.88	5099.13
610.98	4994.07
611.09	5036.77
611.19	5296.97
611.29	5234.10
611.39	5362.61
611.49	5466.23
611.59	5545.39
611.69	5638.06
611.79	5792.88
611.89	5811.32
611.99	5960.20
612.09	6000.86
612.20	5967.68
612.30	5728.37
612.40	5544.36
612.50	5325.23
612.60	5144.40
612.70	5082.65
612.80	5298.30
612.90	5457.73
613.00	5371.51
613.10	5024.49
613.20	4631.28
613.30	4116.93
613.40	3668.53
613.50	3515.03
613.61	3524.55
613.71	3654.40
613.81	3729.56
613.91	3880.80
614.01	4022.93
614.11	4046.89
614.21	4141.50
614.31	4232.84
614.41	4278.41
614.51	4406.31
614.61	4494.68
614.71	4561.13
614.81	4734.49
614.91	4782.72
615.01	4784.77
615.11	4837.71
615.22	4987.83
615.32	5126.78
615.42	5203.07
615.52	5343.25
615.62	5432.65
615.72	5366.19
615.82	5496.34
615.92	5477.29
616.02	5569.04
616.12	5449.44
616.22	5536.79
616.32	5394.04
616.42	5334.75
616.52	5242.19
616.62	5006.36
616.72	5016.60
616.82	4986.80
616.92	4941.65
617.02	5131.19
617.12	5125.14
617.22	5199.38
617.32	4992.74
617.42	4974.93
617.52	5049.27
617.62	5151.26
617.72	5051.93
617.83	5141.53
617.93	5019.88
618.03	4967.04
618.13	4710.33
618.23	4563.08
618.33	4454.13
618.43	4516.80
618.53	4396.07
618.63	4453.41
618.73	4371.70
618.83	4366.17
618.93	4082.73
619.03	3794.17
619.13	3465.57
619.23	3298.77
619.33	3132.06
619.43	3096.84
619.53	3173.33
619.63	3173.12
619.73	3289.14
619.83	3303.17
619.93	3299.38
620.03	3391.33
620.13	3367.68
620.23	3425.94
620.33	3389.80
620.43	3532.03
620.53	3540.32
620.63	3776.25
620.73	3860.52
620.83	4020.78
620.93	4139.46
621.03	4288.86
621.13	4350.30
621.23	4583.87
621.33	4575.78
621.43	4758.05
621.53	4779.55
621.63	5004.83
621.73	5167.95
621.83	5288.98
621.93	5508.42
622.03	5755.82
622.13	5914.64
622.23	6108.68
622.33	6093.01
622.43	6330.17
622.53	6247.53
622.63	6311.63
622.73	6327.10
622.83	6361.91
622.93	6328.12
623.03	6278.36
623.13	6136.94
623.23	6177.39
623.33	6029.22
623.42	6224.08
623.52	6328.53
623.62	6589.75
623.72	6594.05
623.82	6562.82
623.92	6481.72
624.02	6229.72
624.12	5962.25
624.22	5759.81
624.32	5819.10
624.42	5916.17
624.52	5856.88
624.62	5842.75
624.72	5677.69
624.82	5473.71
624.92	5155.45
625.02	5140.30
625.12	5268.60
625.22	5447.19
625.32	5520.71
625.42	5748.34
625.52	5618.81
625.62	5469.20
625.72	5184.64
625.82	5113.47
625.91	4926.08
626.01	5060.02
626.11	5314.99
626.21	5527.47
626.31	5722.84
626.41	5925.39
626.51	5982.83
626.61	6270.78
626.71	6316.45
626.81	6497.90
626.91	6523.91
627.01	6828.24
627.11	7025.76
627.21	7386.72
627.31	7825.08
627.41	8380.29
627.51	8460.47
627.60	8373.73
627.70	8028.34
627.80	7777.78
627.90	7222.06
628.00	6916.71
628.10	7107.68
628.20	7405.76
628.30	7655.92
628.40	7914.99
628.50	8244.81
628.60	8718.00
628.70	8899.65
628.80	9495.00
628.89	9557.26
628.99	10083.07
629.09	10334.26
629.19	10751.22
629.29	11012.13
629.39	11381.69
629.49	11386.50
629.59	11745.41
629.69	11729.64
629.79	11825.48
629.89	11782.68
629.98	11710.29
630.08	11484.19
630.18	11622.84
630.28	11582.80
630.38	11931.26
630.48	12117.93
630.58	12579.75
630.68	12901.59
630.78	13326.75
630.88	13549.67
630.98	13716.37
631.07	13862.70
631.17	13975.13
631.27	14154.74
631.37	14634.58
631.47	14762.27
631.57	14904.30
631.67	15049.81
631.77	15235.56
631.87	15332.22
631.96	15848.00
632.06	16344.53
632.16	16118.64
632.26	15153.13
632.36	13893.42
632.46	11738.55
632.56	9518.04
632.66	7576.67
632.75	6720.00
632.85	5902.96
632.95	5639.18
633.05	5700.52
633.15	5796.98
633.25	5710.35
633.35	5910.85
633.45	5906.96
633.55	6005.57
633.64	6031.17
633.74	6045.60
633.84	6025.74
633.94	6105.61
634.04	6039.26
634.14	6008.84
634.24	6054.92
634.33	6306.51
634.43	6386.18
634.53	6728.19
634.63	7003.54
634.73	7188.88
634.83	7506.93
634.93	7851.81
635.02	8111.29
635.12	8588.98
635.22	8730.70
635.32	9272.08
635.42	9441.24
635.52	9910.53
635.62	10322.99
635.71	10732.89
635.81	10991.86
635.91	11405.65
636.01	11706.91
636.11	12094.79
636.21	12358.88
636.31	12739.08
636.40	12607.40
636.50	12762.94
636.60	12695.87
636.70	12960.98
636.80	12787.93
636.90	12989.24
636.99	12491.18
637.09	12290.47
637.19	11864.29
637.29	11489.21
637.39	11101.32
637.49	11491.97
637.58	11633.28
637.68	12002.02
637.78	12286.17
637.88	12696.79
637.98	12564.29
638.08	12772.57
638.17	12513.40
638.27	12421.95
638.37	12275.32
638.47	12578.52
638.57	12733.25
638.66	12728.74
638.76	12189.82
638.86	11819.03
638.96	11068.04
639.06	10302.82
639.16	10261.04
639.25	10509.25
639.35	10636.94
639.45	11083.30
639.55	11107.57
639.65	10658.86
639.74	9572.00
639.84	8758.86
639.94	7845.87
640.04	6988.69
640.14	6619.04
640.23	6978.25
640.33	7010.09
640.43	7367.06
640.53	7367.67
640.63	7689.41
640.73	7599.91
640.82	7827.85
640.92	7895.53
641.02	7927.28
641.12	7739.79
641.21	7895.53
641.31	7865.74
641.41	7978.37
641.51	8177.54
641.61	8607.61
641.70	8753.63
641.80	9407.75
641.90	9651.77
642.00	10270.77
642.10	10602.33
642.19	11387.63
642.29	11641.37
642.39	12615.49
642.49	12987.91
642.59	13785.70
642.68	14270.35
642.78	14829.14
642.88	15788.92
642.98	16426.76
643.07	16973.67
643.17	17781.69
643.27	18149.61
643.37	19179.84
643.46	19178.00
643.56	19947.73
643.66	20145.97
643.76	20175.56
643.86	20314.01
643.95	20687.76
644.05	20639.22
644.15	21196.27
644.25	21023.94
644.34	20428.59
644.44	19669.20
644.54	19187.32
644.64	18502.07
644.73	18690.79
644.83	18393.73
644.93	19219.06
645.03	19646.98
645.12	20043.37
645.22	20543.17
645.32	20974.99
645.42	20815.25
645.51	20674.35
645.61	20222.77
645.71	20530.68
645.81	20831.32
645.90	21409.26
646.00	21293.45
646.10	21051.99
646.20	20203.31
646.29	19257.87
646.39	17823.37
646.49	17171.09
646.59	17445.72
646.68	17808.62
646.78	18689.66
646.88	19184.55
646.98	18812.13
647.07	17503.78
647.17	15557.80
647.27	14167.13
647.37	12544.63
647.46	11327.83
647.56	11176.99
647.66	11518.70
647.75	11676.60
647.85	11998.74
647.95	12459.64
648.05	12578.93
648.14	12723.11
648.24	12996.92
648.34	13025.49
648.44	13347.12
648.53	13230.08
648.63	13259.06
648.73	13118.47
648.82	13172.64
648.92	13072.08
649.02	13476.45
649.12	13856.25
649.21	14270.25
649.31	14882.69
649.41	15621.09
649.50	16230.15
649.60	17244.10
649.70	17885.42
649.80	18804.24
649.89	19499.43
649.99	20660.11
650.09	21307.89
650.18	22403.86
650.28	23203.08
650.38	24451.11
650.47	25481.34
650.57	26716.26
650.67	27358.10
650.77	28428.88
650.86	29317.90
650.96	30324.89
651.06	30597.88
651.15	31440.83
651.25	31523.97
651.35	31864.45
651.44	32097.10
651.54	32943.83
651.64	32308.55
651.73	33057.39
651.83	32135.70
651.93	31785.60
652.03	29853.85
652.12	29013.37
652.22	28219.17
652.32	28369.69
652.41	28350.24
652.51	29577.99
652.61	30239.59
652.70	31105.27
652.80	31235.41
652.90	32335.28
652.99	31977.19
653.09	32298.00
653.19	31365.67
653.28	31760.51
653.38	32070.27
653.48	32616.67
653.57	32970.45
653.67	32810.00
653.77	31585.11
653.86	29711.62
653.96	27837.22
654.06	26066.44
654.15	25512.16
654.25	26085.69
654.35	27083.47
654.44	28288.18
654.54	28469.53
654.64	27109.37
654.73	24102.65
654.83	21435.88
654.93	18547.33
655.02	16140.14
655.12	14458.66
655.22	14538.94
655.31	14962.77
655.41	15555.76
655.51	15384.03
655.60	16118.44
655.70	16386.00
655.79	16416.42
655.89	16536.12
655.99	16802.56
656.08	16769.18
656.18	16746.75
656.28	16421.94
656.37	16602.27
656.47	16252.37
656.57	16651.73
656.66	16680.40
656.76	17423.61
656.85	17941.13
656.95	18776.90
657.05	19607.56
657.14	20498.63
657.24	21231.39
657.34	22480.25
657.43	23250.69
657.53	24460.84
657.63	25236.71
657.72	26411.12
657.82	27392.81
657.91	28565.99
658.01	29984.11
658.11	31408.78
658.20	32781.73
658.30	34023.11
658.39	35331.76
658.49	36964.71
658.59	37957.26
658.68	39227.82
658.78	40234.80
658.88	40821.75
658.97	40611.53
659.07	41424.16
659.16	41451.09
659.26	42051.86
659.36	42120.68
659.45	42545.63
659.55	42116.37
659.64	41967.69
659.74	39726.70
659.84	38892.77
659.93	36738.72
660.03	36432.75
660.12	35954.65
660.22	36842.34
660.32	37472.09
660.41	38755.56
660.51	39592.87
660.60	40416.77
660.70	40911.76
660.80	41704.12
660.89	41068.43
660.99	40977.40
661.08	40620.03
661.18	41654.35
661.28	41907.28
661.37	42599.08
661.47	42398.18
661.56	41409.83
661.66	39348.34
661.75	36753.46
661.85	34124.69
661.95	32843.68
662.04	32883.01
662.14	34134.11
662.23	35743.40
662.33	36729.71
662.43	36029.10
662.52	33595.19
662.62	29600.83
662.71	26044.63
662.81	21765.50
662.90	18698.06
663.00	17107.71
663.10	17251.37
663.19	17651.95
663.29	18226.51
663.38	18296.45
663.48	19001.05
663.57	19137.24
663.67	19434.61
663.77	19141.44
663.86	19279.07
663.96	19265.75
664.05	19098.03
664.15	18683.82
664.24	18658.43
664.34	18069.02
664.43	17899.96
664.53	17745.55
664.63	17878.87
664.72	18099.13
664.82	18822.57
664.91	19120.76
665.01	20057.81
665.10	20634.00
665.20	21894.53
665.29	22555.61
665.39	23649.84
665.48	24454.79
665.58	25475.09
665.68	26347.32
665.77	27253.45
665.87	28201.66
665.96	29708.96
666.06	30556.31
666.15	32384.22
666.25	32922.63
666.34	33912.62
666.44	34923.60
666.53	36773.43
666.63	37224.08
666.72	38190.73
666.82	39196.28
666.91	39890.23
667.01	39901.39
667.11	40066.46
667.20	40311.19
667.30	40550.19
667.39	40955.07
667.49	41500.35
667.58	40759.90
667.68	40359.32
667.77	38373.30
667.87	37532.92
667.96	35275.34
668.06	34573.81
668.15	34296.72
668.25	34706.31
668.34	35116.83
668.44	35948.10
668.53	36497.36
668.63	37346.66
668.72	38048.09
668.82	38344.53
668.91	38739.58
669.01	38366.54
669.10	37684.98
669.20	38623.77
669.29	38475.29
669.39	39143.85
669.48	39607.82
669.58	39869.24
669.67	38202.09
669.77	36111.83
669.86	33383.32
669.96	31660.27
670.05	29768.15
670.15	30769.30
670.24	31542.00
670.34	33502.21
670.43	34315.87
670.53	34658.90
670.62	32241.58
670.72	28982.65
670.81	25010.31
670.91	21341.98
671.00	17894.54
671.10	16618.24
671.19	16247.25
671.29	16796.72
671.38	17254.24
671.48	17650.73
671.57	17918.09
671.67	18449.23
671.76	18740.04
671.86	19465.33
671.95	19028.19
672.04	19640.12
672.14	19715.08
672.23	19766.48
672.33	19538.34
672.42	19561.17
672.52	19621.79
672.61	19594.15
672.71	19530.56
672.80	19978.55
672.90	20322.40
672.99	20981.24
673.09	21508.38
673.18	22583.57
673.28	23129.55
673.37	24605.93
673.46	25659.61
673.56	27101.08
673.65	28065.47
673.75	29623.97
673.84	30582.62
673.94	32471.47
674.03	34105.85
674.13	36455.89
674.22	38919.29
674.32	42003.63
674.41	42529.45
674.50	42788.52
674.60	41298.62
674.69	39660.14
674.79	36561.67
674.88	33979.39
674.98	31607.84
675.07	31552.34
675.17	30875.28
675.26	30845.79
675.35	30495.38
675.45	31011.47
675.54	30788.04
675.64	31368.84
675.73	31267.98
675.83	31689.86
675.92	31484.04
676.01	30564.60
676.11	28998.62
676.20	27756.43
676.30	26340.87
676.39	26031.12
676.49	25656.75
676.58	25999.99
676.67	26274.62
676.77	27243.72
676.86	27358.10
676.96	27957.23
677.05	28279.68
677.15	29001.49
677.24	29123.04
677.33	29275.82
677.43	28842.47
677.52	28991.86
677.62	29250.83
677.71	29830.30
677.80	30050.97
677.90	30546.89
677.99	28939.74
678.09	27649.52
678.18	25840.25
678.27	23620.66
678.37	21896.57
678.46	21698.23
678.56	22420.34
678.65	23458.15
678.74	24506.40
678.84	25694.53
678.93	24345.33
679.03	22644.08
679.12	19522.06
679.21	16281.76
679.31	12989.14
679.40	10548.37
679.50	9411.54
679.59	9302.49
679.68	9198.35
679.78	9540.77
679.87	9395.88
679.97	9710.96
680.06	9720.17
680.15	9880.02
680.25	9803.01
680.34	9795.74
680.44	9583.47
680.53	9450.25
680.62	9076.19
680.72	8683.29
680.81	8316.19
680.90	8034.18
681.00	7551.88
681.09	7335.21
681.19	7035.28
681.28	6912.41
681.37	6828.95
681.47	6944.97
681.56	7025.66
681.65	7231.68
681.75	7295.89
681.84	7619.16
681.94	7897.48
682.03	8205.70
682.12	8372.40
682.22	8653.90
682.31	8912.96
682.40	9176.44
682.50	9443.80
682.59	9942.48
682.68	10195.10
682.78	10673.40
682.87	11006.09
682.96	11507.13
683.06	11764.25
683.15	12130.63
683.25	12565.82
683.34	13015.05
683.43	13254.86
683.53	13557.96
683.62	13872.63
683.71	14227.24
683.81	14221.50
683.90	14464.19
683.99	14340.49
684.09	14479.45
684.18	14646.77
684.27	14801.69
684.37	14823.10
684.46	14819.20
684.55	14475.25
684.65	13847.75
684.74	13195.98
684.83	12625.22
684.93	11974.88
685.02	12033.35
685.11	11818.73
685.21	12229.65
685.30	12429.43
685.39	12787.82
685.49	13012.38
685.58	13328.39
685.67	13336.47
685.77	13757.43
685.86	13800.14
685.95	13692.31
686.05	13508.50
686.14	13734.60
686.23	13420.03
686.33	13776.48
686.42	13858.91
686.51	14021.83
686.61	13604.14
686.70	13006.96
686.79	12159.61
686.88	11343.90
686.98	10320.02
687.07	10050.61
687.16	10120.04
687.26	10631.82
687.35	11028.41
687.44	11609.22
687.54	11506.82
687.63	11066.40
687.72	9794.00
687.82	8501.73
687.91	6896.74
688.00	5581.94
688.09	4808.22
688.19	4548.33
688.28	4423.51
688.37	4463.04
688.47	4383.57
688.56	4349.99
688.65	4338.62
688.74	4294.59
688.84	4280.46
688.93	4243.08
689.02	4220.56
689.12	4210.83
689.21	4116.72
689.30	3995.69
689.39	3801.13
689.49	3711.33
689.58	3495.47
689.67	3264.67
689.77	3043.49
689.86	2895.42
689.95	2639.83
690.04	2526.07
690.14	2339.91
690.23	2304.68
690.32	2247.13
690.42	2256.76
690.51	2218.46
690.60	2227.58
690.69	2200.13
690.79	2181.70
690.88	2156.82
690.97	2106.95
691.06	2073.16
691.16	2112.48
691.25	2039.98
691.34	2054.11
691.43	2060.05
691.53	2053.70
691.62	2024.01
691.71	2007.93
691.80	1994.62
691.90	1964.82
691.99	1954.89
692.08	1971.07
692.18	2010.80
692.27	2080.84
692.36	1994.52
692.45	2052.47
692.55	1989.60
692.64	2020.12
692.73	1978.13
692.82	2001.07
692.91	1952.84
693.01	2004.76
693.10	2000.66
693.19	1992.06
693.28	1939.22
693.38	1953.86
693.47	1965.23
693.56	1960.93
693.65	1918.95
693.75	1945.78
693.84	1973.12
693.93	1980.28
694.02	1982.54
694.12	1993.60
694.21	1970.97
694.30	2028.21
694.39	1995.54
694.48	1982.84
694.58	1943.62
694.67	1941.78
694.76	1939.22
694.85	1903.59
694.95	1847.17
695.04	1844.71
695.13	1822.90
695.22	1880.04
695.31	1865.60
695.41	1862.63
695.50	1863.96
695.59	1882.29
695.68	1812.04
695.78	1810.20
695.87	1812.86
695.96	1813.78
696.05	1808.97
696.14	1863.14
696.24	1849.01
696.33	1910.55
696.42	1879.11
696.51	1874.40
696.60	1827.61
696.70	1744.66
696.79	1722.24
696.88	1715.69
696.97	1700.94
697.06	1734.22
697.16	1715.69
697.25	1744.56
697.34	1787.57
697.43	1854.95
697.52	1898.06
697.62	1979.46
697.71	1964.21
697.80	2048.89
697.89	2056.37
697.98	2074.59
698.08	2055.75
698.17	2095.99
698.26	2121.18
698.35	2187.95
698.44	2242.53
698.53	2222.46
698.63	2232.29
698.72	2296.69
698.81	2334.38
698.90	2354.96
698.99	2407.49
699.08	2456.33
699.18	2454.08
699.27	2508.45
699.36	2539.38
699.45	2587.10
699.54	2654.27
699.64	2714.38
699.73	2833.98
699.82	2969.66
699.91	3009.59
700.00	3209.68
700.09	3236.20
700.19	3208.86
700.28	3151.31
700.37	3049.63
700.46	2931.67
700.55	2808.79
700.64	2645.36
700.73	2601.13
700.83	2559.45
700.92	2534.87
701.01	2506.82
701.10	2508.56
701.19	2493.91
701.28	2534.26
701.38	2525.66
701.47	2593.14
701.56	2556.99
701.65	2609.11
701.74	2622.63
701.83	2592.93
701.92	2598.26
702.02	2622.01
702.11	2627.85
702.20	2720.21
702.29	2746.84
702.38	2799.06
702.47	2877.40
702.56	2931.67
702.66	2984.20
702.75	3041.75
702.84	3049.22
702.93	3055.47
703.02	3028.33
703.11	3056.90
703.20	3028.23
703.29	3093.87
703.39	3087.31
703.48	3207.22
703.57	3241.01
703.66	3367.99
703.75	3384.47
703.84	3597.56
703.93	3591.32
704.02	3741.95
704.12	3846.90
704.21	4031.94
704.30	4174.48
704.39	4427.40
704.48	4550.07
704.57	4720.16
704.66	4793.99
704.75	4788.56
704.84	4746.17
704.94	4814.26
705.03	4744.02
705.12	4869.56
705.21	4826.04
705.30	4967.86
705.39	5077.84
705.48	5209.62
705.57	5278.64
705.66	5430.09
705.75	5625.67
705.85	5883.71
705.94	5889.04
706.03	6027.99
706.12	6041.51
706.21	6176.78
706.30	6307.74
706.39	6528.82
706.48	6719.39
706.57	7043.27
706.66	7147.00
706.75	7631.76
706.85	7882.22
706.94	8395.34
707.03	8842.62
707.12	9611.12
707.21	10313.88
707.30	11015.00
707.39	10989.20
707.48	10415.66
707.57	9761.85
707.66	8614.37
707.75	7256.47
707.84	6198.48
707.93	5321.75
708.03	4970.62
708.12	4717.91
708.21	4593.90
708.30	4499.39
708.39	4549.87
708.48	4579.36
708.57	4721.80
708.66	4713.91
708.75	4737.16
708.84	4767.98
708.93	4936.83
709.02	4856.66
709.11	4912.67
709.20	4847.85
709.29	4972.16
709.39	4985.47
709.48	5141.32
709.57	5252.53
709.66	5517.23
709.75	5595.67
709.84	5683.01
709.93	5742.71
710.02	5849.41
710.11	5875.42
710.20	5959.49
710.29	6035.57
710.38	6133.15
710.47	6116.77
710.56	6341.94
710.65	6470.05
710.74	6550.74
710.83	6678.22
710.92	6940.05
711.01	7174.03
711.10	7340.33
711.19	7476.31
711.28	7886.32
711.38	7918.98
711.47	8164.02
711.56	8373.94
711.65	8627.48
711.74	8903.85
711.83	9173.36
711.92	9315.19
712.01	9563.09
712.10	9764.72
712.19	10075.08
712.28	10244.25
712.37	10660.70
712.46	11051.25
712.55	11237.41
712.64	11388.55
712.73	11616.80
712.82	11989.32
712.91	12319.45
713.00	12504.79
713.09	12477.15
713.18	12541.45
713.27	12637.91
713.36	12354.17
713.45	12639.04
713.54	12427.59
713.63	12777.48
713.72	13099.83
713.81	13341.70
713.90	13511.88
713.99	13827.78
714.08	14324.01
714.17	14890.78
714.26	15247.33
714.35	15791.38
714.44	15927.67
714.53	16408.63
714.62	16764.06
714.71	17572.90
714.80	18272.08
714.89	19277.73
714.98	20393.06
715.07	22174.48
715.16	23670.73
715.25	25991.49
715.34	26785.08
715.43	26714.42
715.52	25071.85
715.61	22498.06
715.70	19253.88
715.79	15803.25
715.88	12308.80
715.97	10093.93
716.06	8714.31
716.15	8108.42
716.24	7699.44
716.33	7593.97
716.42	7454.30
716.51	7284.52
716.60	6768.54
716.69	6343.17
716.78	5748.24
716.87	5251.71
716.96	4799.21
717.05	4667.22
717.13	4547.72
717.22	4527.85
717.31	4553.86
717.40	4541.06
717.49	4493.24
717.58	4563.28
717.67	4528.98
717.76	4646.74
717.85	4672.54
717.94	4672.13
718.03	4588.68
718.12	4551.10
718.21	4436.82
718.30	4344.66
718.39	4191.78
718.48	4157.89
718.57	4268.79
718.66	4348.55
718.75	4433.65
718.84	4479.62
718.93	4425.97
719.02	4498.98
719.10	4532.36
719.19	4670.70
719.28	4677.36
719.37	4782.83
719.46	4952.81
719.55	5264.92
719.64	5266.76
719.73	5283.45
719.82	5339.26
719.91	5633.96
720.00	5741.69
720.09	5852.79
720.18	6002.08
720.27	6345.22
720.36	6546.43
720.44	6706.18
720.53	6662.55
720.62	6869.30
720.71	7090.38
720.80	7178.85
720.89	7451.43
720.98	7865.74
721.07	8031.62
721.16	8273.18
721.25	8432.92
721.34	8606.08
721.43	8585.39
721.52	8869.24
721.60	9275.35
721.69	9958.04
721.78	10106.73
721.87	10560.45
721.96	10866.62
722.05	11190.82
722.14	11338.48
722.23	11596.42
722.32	11921.02
722.41	12885.82
722.50	13282.20
722.58	13629.03
722.67	13850.41
722.76	14441.87
722.85	14422.21
722.94	14898.05
723.03	14844.80
723.12	15388.85
723.21	15313.99
723.30	15669.21
723.38	15421.41
723.47	15387.41
723.56	15570.71
723.65	16087.31
723.74	16087.72
723.83	16303.98
723.92	15750.01
724.01	15753.39
724.10	14966.45
724.18	14569.04
724.27	14010.97
724.36	14060.94
724.45	13801.47
724.54	14125.86
724.63	14093.10
724.72	14640.83
724.81	14772.82
724.89	15241.80
724.98	15542.34
725.07	16041.12
725.16	16184.89
725.25	16186.43
725.34	15637.47
725.43	15408.30
725.52	14951.81
725.60	14973.62
725.69	14806.20
725.78	15387.41
725.87	16000.37
725.96	16775.01
726.05	16905.47
726.14	16788.33
726.22	15684.16
726.31	14947.41
726.40	13763.58
726.49	12904.87
726.58	12298.77
726.67	12487.59
726.76	12545.34
726.84	13116.93
726.93	13442.15
727.02	14090.95
727.11	14782.55
727.20	15235.04
727.29	15272.11
727.38	14799.24
727.46	13817.75
727.55	12618.15
727.64	11202.90
727.73	9994.91
727.82	9208.79
727.91	8852.96
727.99	8541.67
728.08	8714.82
728.17	8954.54
728.26	9326.96
728.35	9384.71
728.44	9538.00
728.52	9618.90
728.61	9780.79
728.70	9712.80
728.79	9761.13
728.88	9637.23
728.97	9783.25
729.05	9459.98
729.14	9174.59
729.23	8867.09
729.32	8687.79
729.41	8212.87
729.49	8049.23
729.58	8021.07
729.67	8198.63
729.76	8248.30
729.85	8313.52
729.94	8161.36
730.02	8387.25
730.11	8499.99
730.20	8847.22
730.29	8797.05
730.38	9057.24
730.46	9259.69
730.55	9731.74
730.64	9851.24
730.73	9961.12
730.82	9814.07
730.90	10210.15
730.99	10459.08
731.08	10663.98
731.17	10662.54
731.26	11177.61
731.34	11619.15
731.43	12008.16
731.52	11983.79
731.61	12165.75
731.70	12493.63
731.78	12862.17
731.87	12959.85
731.96	13592.88
732.05	14241.17
732.13	14863.13
732.22	15077.35
732.31	15479.06
732.40	15699.22
732.49	16046.45
732.57	15851.59
732.66	16779.32
732.75	17741.25
732.84	18326.04
732.93	18594.33
733.01	19455.50
733.10	19761.06
733.19	20560.48
733.28	20430.84
733.36	21105.96
733.45	21901.08
733.54	23453.95
733.63	23884.03
733.71	24427.66
733.80	24997.40
733.89	25867.89
733.98	26220.86
734.07	26759.78
734.15	27088.38
734.24	28101.61
734.33	28414.34
734.42	28713.44
734.50	27911.87
734.59	28102.33
734.68	27568.22
734.77	28157.73
734.85	28214.35
734.94	28983.26
735.03	28193.05
735.12	28049.39
735.20	26561.54
735.29	25711.53
735.38	23935.53
735.47	23131.40
735.55	22381.43
735.64	22439.59
735.73	22201.72
735.82	23040.47
735.90	23377.05
735.99	24032.81
736.08	24598.36
736.17	25268.15
736.25	25694.33
736.34	26715.75
736.43	26933.66
736.51	26832.79
736.60	25903.63
736.69	25122.84
736.78	24547.26
736.86	24253.48
736.95	23937.38
737.04	24573.88
737.13	25970.39
737.21	27755.61
737.30	28130.69
737.39	27955.80
737.47	26517.20
737.56	24849.13
737.65	22649.31
737.74	20767.43
737.82	19282.14
737.91	18941.56
738.00	19047.75
738.08	19674.63
738.17	20152.42
738.26	21179.89
738.35	22086.73
738.43	23435.32
738.52	24260.75
738.61	24457.25
738.69	23232.67
738.78	21556.51
738.87	18943.20
738.96	16515.02
739.04	13922.81
739.13	12288.73
739.22	11484.09
739.30	11417.43
739.39	11359.88
739.48	11665.74
739.56	11853.85
739.65	12332.97
739.74	12515.03
739.82	12770.42
739.91	12661.67
740.00	12971.42
740.09	12988.22
740.17	13125.43
740.26	13207.45
740.35	13392.69
740.43	13104.95
740.52	13007.78
740.61	12522.82
740.69	12169.44
740.78	11594.88
740.87	11319.43
740.95	11079.00
741.04	11251.64
741.13	11358.96
741.21	11606.15
741.30	11665.64
741.39	11783.30
741.47	11998.95
741.56	12792.84
741.65	13307.60
741.73	14153.41
741.82	14838.86
741.91	16078.19
741.99	17049.65
742.08	17884.60
742.17	17840.06
742.25	18093.09
742.34	17925.56
742.43	18023.25
742.51	17375.38
742.60	17301.75
742.69	16856.63
742.77	17086.31
742.86	17303.08
742.95	17370.26
743.03	17209.70
743.12	17517.92
743.21	17800.53
743.29	18601.19
743.38	18758.06
743.47	19872.57
743.55	20972.22
743.64	22015.15
743.73	22772.39
743.81	23184.95
743.90	24004.55
743.98	24725.95
744.07	25799.39
744.16	27645.63
744.24	29437.20
744.33	30461.08
744.42	31142.23
744.50	31697.95
744.59	31365.87
744.68	31353.89
744.76	30535.62
744.85	30686.46
744.93	31553.67
745.02	33389.88
745.11	34721.36
745.19	36575.49
745.28	36493.78
745.37	37680.99
745.45	38256.98
745.54	39220.34
745.62	39610.69
745.71	40139.37
745.80	40615.21
745.88	42525.97
745.97	42394.18
746.05	42705.27
746.14	42130.30
746.23	42712.54
746.31	43040.73
746.40	44411.33
746.49	45298.10
746.57	47628.59
746.66	48618.16
746.74	49529.92
746.83	48386.64
746.92	47164.82
747.00	44454.23
747.09	42434.94
747.17	39951.88
747.26	37860.29
747.35	36661.41
747.43	36849.20
747.52	37266.38
747.60	38214.38
747.69	38471.50
747.78	39647.86
747.86	40107.73
747.95	41669.41
748.03	42176.07
748.12	43384.68
748.20	42876.38
748.29	41837.65
748.38	40671.23
748.46	39678.06
748.55	38519.73
748.63	38991.28
748.72	39240.82
748.81	41964.52
748.89	44576.60
748.98	46529.44
749.06	46072.03
749.15	45158.43
749.23	42031.28
749.32	39686.56
749.41	36148.29
749.49	33471.49
749.58	31767.37
749.66	31854.41
749.75	32324.11
749.83	33951.94
749.92	34783.62
750.01	36882.69
750.09	38507.14
750.18	40763.08
750.26	42245.81
750.35	43044.10
750.43	41093.21
750.52	38889.70
750.60	35206.63
750.69	32353.91
750.78	28734.13
750.86	26962.12
750.95	26194.24
751.03	25946.43
751.12	24838.58
751.20	23849.72
751.29	22340.68
751.37	20826.20
751.46	19346.34
751.55	18231.43
751.63	17129.11
751.72	16746.96
751.80	16244.28
751.89	16147.62
751.97	15814.21
752.06	15800.18
752.14	15772.74
752.23	15501.18
752.31	15010.89
752.40	14524.09
752.48	13654.83
752.57	12845.58
752.65	11946.21
752.74	11341.55
752.83	10781.84
752.91	10796.99
753.00	10820.24
753.08	10809.69
753.17	10809.38
753.25	10826.59
753.34	10814.91
753.42	11092.72
753.51	11299.77
753.59	11705.17
753.68	11840.95
753.76	12482.06
753.85	12900.56
753.93	13687.70
754.02	13583.15
754.10	13621.24
754.19	13655.96
754.27	14089.62
754.36	14206.45
754.44	14624.95
754.53	14958.26
754.61	15601.43
754.70	16324.97
754.78	17451.05
754.87	17490.17
754.95	17628.61
755.04	17420.64
755.12	18238.19
755.21	18591.05
755.29	19156.09
755.38	19434.30
755.46	20888.05
755.55	21858.48
755.63	22733.78
755.72	22995.31
755.80	23347.36
755.89	23657.62
755.97	23933.28
756.06	24345.23
756.14	25502.84
756.23	26780.88
756.31	28180.87
756.40	28751.33
756.48	30139.44
756.57	30716.25
756.65	31473.08
756.74	31188.41
756.82	32321.96
756.91	32302.92
756.99	34355.70
757.08	36539.55
757.16	38067.85
757.25	38614.86
757.33	39868.63
757.41	40515.68
757.50	41108.57
757.58	41600.70
757.67	42477.94
757.75	42842.99
757.84	44305.76
757.92	45173.07
758.01	46146.57
758.09	45195.19
758.18	44837.72
758.26	45222.32
758.35	45976.28
758.43	46053.49
758.51	47826.93
758.60	48835.35
758.68	50144.92
758.77	49146.64
758.85	48571.47
758.94	46452.13
759.02	43935.79
759.11	41599.77
759.19	40353.69
759.27	39112.31
759.36	39454.22
759.44	39687.89
759.53	41392.93
759.61	41153.73
759.70	42264.24
759.78	43329.39
759.87	44333.40
759.95	44902.84
760.03	46435.54
760.12	46961.25
760.20	49075.27
760.29	49252.21
760.37	49683.72
760.46	48814.15
760.54	48737.87
760.62	48769.20
760.71	49650.54
760.79	50708.73
760.88	52594.40
760.96	54589.02
761.05	56980.84
761.13	56811.88
761.21	55627.44
761.30	50579.09
761.38	46171.05
761.47	40689.76
761.55	35954.65
761.64	31264.80
761.72	28827.11
761.80	27599.45
761.89	28012.73
761.97	28524.42
762.06	30226.48
762.14	31254.56
762.22	33240.68
762.31	35297.05
762.39	38279.40
762.48	39665.57
762.56	39383.36
762.64	36797.60
762.73	33444.25
762.81	28556.98
762.90	23932.26
762.98	18811.41
763.06	15109.50
763.15	13416.55
763.23	12961.08
763.32	12742.97
763.40	12866.88
763.48	12943.98
763.57	13317.43
763.65	13587.45
763.74	14110.20
763.82	14431.93
763.90	14602.02
763.99	14624.65
764.07	14527.98
764.15	14318.37
764.24	14254.58
764.32	14101.19
764.41	14132.11
764.49	14020.39
764.57	13953.02
764.66	13304.32
764.74	12684.61
764.82	11585.77
764.91	10907.07
764.99	9849.40
765.08	9219.96
765.16	8614.58
765.24	8578.63
765.33	8553.96
765.41	8612.12
765.49	8518.83
765.58	8375.07
765.66	8243.79
765.74	8388.17
765.83	8433.74
765.91	8742.47
766.00	8916.86
766.08	9363.93
766.16	9692.01
766.25	10093.82
766.33	10091.37
766.41	10037.91
766.50	9888.11
766.58	10115.63
766.66	10213.83
766.75	10505.98
766.83	10708.01
766.91	11038.76
767.00	11443.84
767.08	12122.64
767.16	12663.72
767.25	13065.73
767.33	12645.08
767.41	12686.96
767.50	12732.84
767.58	13302.27
767.66	13427.10
767.75	13973.80
767.83	14387.80
767.91	15303.86
768.00	15989.21
768.08	16409.96
768.16	16335.42
768.25	16637.29
768.33	16615.38
768.41	17068.80
768.50	17143.96
768.58	18141.73
768.66	18866.91
768.75	19747.95
768.83	20378.42
768.91	21137.29
769.00	21471.62
769.08	21970.71
769.16	21952.28
769.25	22367.91
769.33	22705.42
769.41	23465.32
769.50	24653.55
769.58	26218.30
769.66	26929.46
769.74	27787.97
769.83	27988.77
769.91	29024.43
769.99	29072.45
770.08	29745.01
770.16	30034.79
770.24	31131.99
770.33	31602.51
770.41	32665.20
770.49	32804.67
770.58	32572.43
770.66	31342.22
770.74	31704.71
770.82	31834.86
770.91	32253.66
770.99	32356.37
771.07	34004.68
771.16	35092.25
771.24	35703.47
771.32	34907.63
771.40	34192.99
771.49	32242.50
771.57	30108.01
771.65	28167.56
771.74	26867.20
771.82	25276.24
771.90	25029.97
771.98	25009.28
772.07	26180.82
772.15	26028.86
772.23	26380.19
772.31	27069.54
772.40	27973.00
772.48	28069.77
772.56	28613.09
772.65	28933.09
772.73	29761.39
772.81	30209.28
772.89	31193.84
772.98	30475.82
773.06	29919.19
773.14	28870.83
773.22	28407.37
773.31	27376.22
773.39	26986.49
773.47	27043.32
773.55	29145.97
773.64	31198.96
773.72	32828.43
773.80	34134.83
773.88	33406.88
773.97	31595.04
774.05	29618.13
774.13	26436.82
774.21	23957.34
774.30	21420.73
774.38	19521.95
774.46	19336.82
774.54	19625.07
774.63	20157.64
774.71	20931.16
774.79	21924.53
774.87	23626.90
774.96	25151.92
775.04	27486.40
775.12	28874.62
775.20	29309.81
775.29	27502.99
775.37	25344.74
775.45	22122.77
775.53	18284.88
775.61	14301.78
775.70	10998.72
775.78	9136.71
775.86	8228.33
775.94	7863.69
776.03	7857.24
776.11	8003.36
776.19	8323.76
776.27	8506.85
776.36	8975.02
776.44	9353.18
776.52	9844.48
776.60	10019.69
776.68	10366.00
776.77	10345.62
776.85	10358.32
776.93	9874.08
777.01	9542.31
777.09	9028.16
777.18	8746.36
777.26	8398.72
777.34	8194.74
777.42	7861.54
777.50	7365.21
777.59	6689.79
777.67	6073.76
777.75	5361.48
777.83	4756.61
777.91	4194.96
778.00	4052.83
778.08	3975.93
778.16	4002.24
778.24	3946.64
778.32	4123.89
778.41	4158.81
778.49	4498.06
778.57	4740.02
778.65	5068.21
778.73	5241.47
778.82	5357.79
778.90	5393.84
778.98	5356.56
779.06	5134.87
779.14	4900.48
779.22	4573.32
779.31	4419.31
779.39	4146.11
779.47	4018.22
779.55	3951.45
779.63	3978.90
779.72	3893.29
779.80	4003.68
779.88	3986.68
779.96	4156.15
780.04	4244.11
780.12	4359.72
780.21	4402.21
780.29	4524.47
780.37	4666.71
780.45	4775.15
780.53	4857.78
780.61	4917.79
780.70	4988.44
780.78	5058.59
780.86	5191.40
780.94	5336.80
781.02	5257.14
781.10	5301.37
781.18	5240.75
781.27	5241.26
781.35	5203.17
781.43	5112.34
781.51	5078.96
781.59	5027.15
781.67	4959.36
781.75	5049.37
781.84	5002.27
781.92	5098.83
782.00	5020.08
782.08	5167.13
782.16	5375.82
782.24	5991.64
782.32	6646.27
782.41	7663.50
782.49	8889.62
782.57	10696.23
782.65	12532.03
782.73	14367.93
782.81	15262.28
782.89	15118.41
782.98	14023.57
783.06	13030.92
783.14	11400.43
783.22	9253.95
783.30	7355.48
783.38	6352.08
783.46	5700.42
783.54	5515.38
783.63	5237.48
783.71	5148.08
783.79	4988.03
783.87	5062.89
783.95	5026.23
784.03	5158.73
784.11	5124.33
784.19	5278.13
784.27	5280.69
784.36	5434.49
784.44	5366.09
784.52	5385.34
784.60	5298.71
784.68	5308.85
784.76	5231.64
784.84	5177.37
784.92	5162.21
785.00	5330.35
785.08	5413.19
785.17	5504.33
785.25	5479.24
785.33	5603.34
785.41	5537.61
785.49	5449.34
785.57	5321.75
785.65	5420.56
785.73	5467.05
785.81	5640.21
785.89	5699.29
785.98	5913.51
786.06	5988.77
786.14	6031.27
786.22	5964.50
786.30	5981.81
786.38	5886.07
786.46	5905.22
786.54	5831.18
786.62	5989.08
786.70	6066.39
786.78	6142.58
786.86	5964.50
786.94	6005.26
787.03	5894.67
787.11	5811.73
787.19	5621.37
787.27	5516.92
787.35	5529.82
787.43	5715.88
787.51	5747.93
787.59	6137.86
787.67	6350.34
787.75	6674.23
787.83	6800.49
787.91	7022.48
787.99	7116.18
788.07	7365.83
788.15	7401.87
788.23	7623.87
788.32	7772.14
788.40	7854.16
788.48	7905.88
788.56	7568.58
788.64	7069.18
788.72	6463.39
788.80	5846.03
788.88	5159.75
788.96	4646.23
789.04	4301.25
789.12	4065.73
789.20	3992.11
789.28	4002.35
789.36	4037.06
789.44	4062.35
789.52	4056.41
789.60	3893.29
789.68	3775.74
789.76	3573.60
789.84	3418.16
789.92	3113.42
790.00	2912.72
790.08	2795.17
790.16	2751.65
790.25	2591.09
790.33	2534.16
790.41	2442.82
790.49	2390.90
790.57	2352.40
790.65	2311.95
790.73	2244.57
790.81	2254.92
790.89	2293.72
790.97	2390.70
791.05	2465.55
791.13	2538.15
791.21	2525.25
791.29	2566.10
791.37	2507.64
791.45	2325.57
791.53	2129.68
791.61	1978.85
791.69	1891.30
791.77	1834.78
791.85	1751.12
791.93	1693.87
792.01	1698.69
792.09	1702.17
792.17	1664.69
792.25	1664.69
792.33	1742.82
792.41	1783.68
792.49	1855.56
792.57	1884.44
792.65	1898.77
792.73	1876.04
792.81	1827.30
792.89	1774.26
792.97	1685.48
793.05	1706.57
793.13	1721.73
793.21	1785.83
793.29	1776.10
793.37	1851.26
793.45	1805.18
793.53	1872.25
793.61	1881.57
793.69	1937.38
793.77	1904.51
793.85	2013.05
793.93	2045.20
794.01	2108.59
794.09	2018.79
794.16	2015.41
794.24	2023.19
794.32	2061.59
794.40	2091.28
794.48	2157.64
794.56	2128.66
794.64	2186.21
794.72	2152.72
794.80	2241.81
794.88	2283.79
794.96	2362.13
795.04	2375.44
795.12	2445.07
795.20	2477.12
795.28	2514.29
795.36	2491.15
795.44	2548.39
795.52	2530.16
795.60	2659.39
795.68	2710.69
795.76	2784.42
795.84	2839.10
795.92	2952.45
796.00	2954.40
796.07	2983.17
796.15	3008.16
796.23	3062.12
796.31	3044.61
796.39	3169.54
796.47	3144.04
796.55	3341.77
796.63	3397.07
796.71	3488.31
796.79	3535.41
796.87	3582.10
796.95	3568.69
797.03	3725.05
797.11	3850.08
797.19	3844.86
797.27	4032.86
797.34	4294.39
797.42	4463.04
797.50	4609.57
797.58	4656.16
797.66	4712.99
797.74	4783.54
797.82	4725.07
797.90	4764.39
797.98	4881.13
798.06	4887.58
798.14	5196.93
798.22	5255.09
798.29	5489.48
798.37	5560.13
798.45	5723.36
798.53	5744.04
798.61	5810.91
798.69	5876.44
798.77	6087.69
798.85	6276.51
798.93	6520.32
799.01	6780.52
799.09	7150.69
799.16	7795.29
799.24	8601.57
799.32	9303.51
799.40	9762.87
799.48	10125.06
799.56	10232.68
799.64	9563.60
799.72	8717.69
799.80	7660.94
799.88	6473.22
799.95	5256.01
800.03	4466.62
800.11	3898.31
800.19	3727.51
800.27	3528.04
800.35	3374.54
800.43	3232.41
800.51	3203.84
800.58	3172.30
800.66	3137.08
800.74	2992.70
800.82	2968.33
800.90	2869.31
800.98	2824.56
801.06	2776.12
801.14	2687.34
801.21	2695.95
801.29	2769.57
801.37	2863.67
801.45	2961.87
801.53	2966.07
801.61	3075.33
801.69	3155.31
801.77	3254.22
801.84	3193.60
801.92	3146.91
802.00	3070.62
802.08	3009.80
802.16	2870.84
802.24	2774.18
802.32	2662.56
802.39	2687.14
802.47	2712.84
802.55	2793.53
802.63	2886.92
802.71	3047.58
802.79	3188.07
802.87	3282.79
802.94	3262.93
803.02	3295.69
803.10	3138.00
803.18	3045.23
803.26	2808.38
803.34	2695.95
803.41	2598.36
803.49	2619.56
803.57	2561.29
803.65	2538.87
803.73	2549.21
803.81	2618.74
803.88	2563.44
803.96	2617.10
804.04	2666.35
804.12	2682.53
804.20	2698.92
804.28	2699.94
804.35	2744.69
804.43	2820.97
804.51	2838.79
804.59	2812.78
804.67	2742.64
804.75	2721.34
804.82	2513.68
804.90	2344.92
804.98	2176.79
805.06	2083.19
805.14	2061.08
805.21	2179.04
805.29	2254.51
805.37	2355.98
805.45	2471.80
805.53	2554.02
805.60	2581.16
805.68	2542.35
805.76	2458.28
805.84	2434.22
805.92	2440.36
805.99	2476.30
806.07	2401.86
806.15	2421.83
806.23	2428.07
806.31	2381.48
806.38	2381.38
806.46	2354.75
806.54	2254.40
806.62	2274.27
806.70	2177.50
806.77	2130.19
806.85	2069.88
806.93	2026.67
807.01	2048.99
807.09	2075.92
807.16	1991.34
807.24	2059.95
807.32	2034.25
807.40	2083.40
807.48	2012.33
807.55	2023.39
807.63	2056.26
807.71	2163.58
807.79	2136.85
807.86	2208.32
807.94	2240.89
808.02	2252.66
808.10	2225.63
808.17	2241.60
808.25	2242.53
808.33	2282.77
808.41	2290.96
808.49	2283.79
808.56	2399.60
808.64	2397.56
808.72	2533.13
808.80	2683.76
808.87	2797.63
808.95	2963.10
809.03	3024.13
809.11	3148.75
809.18	3194.73
809.26	3246.34
809.34	3099.19
809.42	3096.63
809.49	3028.95
809.57	3064.79
809.65	3005.09
809.73	3028.23
809.80	3095.50
809.88	3128.78
809.96	3114.35
810.04	3159.81
810.11	3261.60
810.19	3284.63
810.27	3362.66
810.35	3489.94
810.42	3612.10
810.50	3837.18
810.58	3851.51
810.66	4084.98
810.73	4049.45
810.81	4063.17
810.89	4146.73
810.96	4240.63
811.04	4095.22
811.12	4331.25
811.20	4461.09
811.27	4815.08
811.35	5034.73
811.43	5779.68
811.50	6314.09
811.58	7051.36
811.66	7085.87
811.74	7254.72
811.81	6759.12
811.89	6320.85
811.97	5491.12
812.05	4544.85
812.12	3666.58
812.20	3006.62
812.28	2379.33
812.35	1998.61
812.43	1791.97
812.51	1692.95
812.58	1626.39
812.66	1608.99
812.74	1615.85
812.82	1639.30
812.89	1655.89
812.97	1650.25
813.05	1619.84
813.12	1611.14
813.20	1561.06
813.28	1538.33
813.35	1522.26
813.43	1526.66
813.51	1549.08
813.59	1536.39
813.66	1528.40
813.74	1568.13
813.82	1539.87
813.89	1515.50
813.97	1483.04
814.05	1455.08
814.12	1432.14
814.20	1479.96
814.28	1497.78
814.35	1575.60
814.43	1600.79
814.51	1678.52
814.58	1660.80
814.66	1706.88
814.74	1662.64
814.81	1630.59
814.89	1576.63
814.97	1553.90
815.04	1546.93
815.12	1548.47
815.20	1506.08
815.27	1478.74
815.35	1492.25
815.43	1529.73
815.50	1518.16
815.58	1558.20
815.66	1583.28
815.73	1627.01
815.81	1639.60
815.89	1660.29
815.96	1635.71
816.04	1616.67
816.12	1549.49
816.19	1521.33
816.27	1506.28
816.35	1525.33
816.42	1579.29
816.50	1685.89
816.58	1725.11
816.65	1790.85
816.73	1797.19
816.80	1792.28
816.88	1767.91
816.96	1722.14
817.03	1654.55
817.11	1634.48
817.19	1680.05
817.26	1655.48
817.34	1686.40
817.42	1722.24
817.49	1739.24
817.57	1729.41
817.64	1774.87
817.72	1733.40
817.80	1748.86
817.87	1753.88
817.95	1761.15
818.03	1774.26
818.10	1879.93
818.18	2057.08
818.25	2379.23
818.33	2721.65
818.41	3026.28
818.48	3243.47
818.56	3573.19
818.63	3790.79
818.71	3741.23
818.79	3508.07
818.86	3142.71
818.94	2865.01
819.02	2516.65
819.09	2188.25
819.17	1837.13
819.24	1645.44
819.32	1478.33
819.40	1409.72
819.47	1345.72
819.55	1342.14
819.62	1337.73
819.70	1376.95
819.78	1384.02
819.85	1516.52
819.93	1577.45
820.00	1674.73
820.08	1683.74
820.16	1708.62
820.23	1649.43
820.31	1574.07
820.38	1475.46
820.46	1358.21
820.53	1260.73
820.61	1224.89
820.69	1187.72
820.76	1222.33
820.84	1254.48
820.91	1334.97
820.99	1360.77
821.07	1463.48
821.14	1526.35
821.22	1683.94
821.29	1836.72
821.37	2271.30
821.44	2858.35
821.52	3180.70
821.60	3317.71
821.67	3458.61
821.75	3354.47
821.82	3245.62
821.90	2811.55
821.97	2297.92
822.05	2196.04
822.12	2235.56
822.20	2262.19
822.28	2216.52
822.35	2114.43
822.43	2014.28
822.50	1842.76
822.58	1665.10
822.65	1371.52
822.73	1264.42
822.80	1185.16
822.88	1120.03
822.96	1071.29
823.03	1107.95
823.11	1095.66
823.18	1094.02
823.26	1111.84
823.33	1105.80
823.41	1112.15
823.48	1124.74
823.56	1134.78
823.63	1161.10
823.71	1144.40
823.79	1216.39
823.86	1217.21
823.94	1359.54
824.01	1551.95
824.09	1784.19
824.16	1870.31
824.24	1944.03
824.31	1997.90
824.39	2011.11
824.46	1903.89
824.54	1727.67
824.61	1558.81
824.69	1516.42
824.76	1423.24
824.84	1423.24
824.91	1414.12
824.99	1406.65
825.06	1411.26
825.14	1381.87
825.21	1378.08
825.29	1388.42
825.36	1368.25
825.44	1379.10
825.51	1353.81
825.59	1353.40
825.67	1370.40
825.74	1384.84
825.82	1382.38
825.89	1465.83
825.97	1508.74
826.04	1502.29
826.12	1537.61
826.19	1587.79
826.27	1589.02
826.34	1622.20
826.41	1608.37
826.49	1598.85
826.56	1578.78
826.64	1565.26
826.71	1523.18
826.79	1504.13
826.86	1467.06
826.94	1468.80
827.01	1485.80
827.09	1510.38
827.16	1506.28
827.24	1572.33
827.31	1590.55
827.39	1674.93
827.46	1729.41
827.54	1804.47
827.61	1870.92
827.69	2014.79
827.76	2144.53
827.84	2336.94
827.91	2434.22
827.99	2576.45
828.06	2684.89
828.14	2756.77
828.21	2703.52
828.28	2584.84
828.36	2319.43
828.43	2158.15
828.51	1905.63
828.58	1698.07
828.66	1515.39
828.73	1404.70
828.81	1323.70
828.88	1318.58
828.96	1279.16
829.03	1294.83
829.11	1281.52
829.18	1366.30
829.25	1421.60
829.33	1429.48
829.40	1388.32
829.48	1437.98
829.55	1494.40
829.63	1456.11
829.70	1437.57
829.78	1478.12
829.85	1454.06
829.92	1477.00
830.00	1456.31
830.07	1468.50
830.15	1480.58
830.22	1505.77
830.30	1529.73
830.37	1546.01
830.44	1520.21
830.52	1506.49
830.59	1496.66
830.67	1491.33
830.74	1480.68
830.82	1484.37
830.89	1442.59
830.96	1495.73
831.04	1519.39
831.11	1554.10
831.19	1561.58
831.26	1571.41
831.34	1560.04
831.41	1543.25
831.48	1567.52
831.56	1535.77
831.63	1513.55
831.71	1501.78
831.78	1489.69
831.85	1501.98
831.93	1492.46
832.00	1502.29
832.08	1506.59
832.15	1568.74
832.22	1478.22
832.30	1490.82
832.37	1464.71
832.45	1443.31
832.52	1436.34
832.59	1469.21
832.67	1468.91
832.74	1503.62
832.82	1518.77
832.89	1555.02
832.96	1610.01
833.04	1663.77
833.11	1743.33
833.19	1754.09
833.26	1753.47
833.33	1800.98
833.41	1757.05
833.48	1719.58
833.56	1688.45
833.63	1648.10
833.70	1592.60
833.78	1589.74
833.85	1564.14
833.92	1575.71
834.00	1535.36
834.07	1516.11
834.15	1414.53
834.22	1427.84
834.29	1377.77
834.37	1374.39
834.44	1340.29
834.51	1387.91
834.59	1399.17
834.66	1420.47
834.73	1469.32
834.81	1519.08
834.88	1570.28
834.96	1616.87
835.03	1629.06
835.10	1657.83
835.18	1648.72
835.25	1621.79
835.32	1564.85
835.40	1545.70
835.47	1520.62
835.54	1508.43
835.62	1516.83
835.69	1541.81
835.76	1569.05
835.84	1581.13
835.91	1617.08
835.98	1665.20
836.06	1676.67
836.13	1674.73
836.21	1701.86
836.28	1715.69
836.35	1741.70
836.43	1747.02
836.50	1751.22
836.57	1713.84
836.65	1726.23
836.72	1690.09
836.79	1715.99
836.87	1729.92
836.94	1704.83
837.01	1769.45
837.08	1739.44
837.16	1812.04
837.23	1828.02
837.30	1866.31
837.38	1871.23
837.45	1862.01
837.52	1845.53
837.60	1870.10
837.67	1889.15
837.74	1860.68
837.82	1928.57
837.89	1926.83
837.96	1979.05
838.04	2017.04
838.11	2004.76
838.18	1973.63
838.26	1960.62
838.33	1907.68
838.40	1861.30
838.47	1886.69
838.55	1856.79
838.62	1947.93
838.69	1949.36
838.77	1995.03
838.84	2041.01
838.91	2098.96
838.99	2103.88
839.06	2126.82
839.13	2134.19
839.20	2234.03
839.28	2247.95
839.35	2352.71
839.42	2445.48
839.50	2658.78
839.57	2824.66
839.64	3106.77
839.71	3252.28
839.79	3466.80
839.86	3611.49
839.93	3734.68
840.01	3733.96
840.08	3672.52
840.15	3528.04
840.22	3365.94
840.30	3024.44
840.37	2789.64
840.44	2462.58
840.51	2135.83
840.59	1833.24
840.66	1689.37
840.73	1554.20
840.81	1492.76
840.88	1418.32
840.95	1433.48
841.02	1395.08
841.10	1411.77
841.17	1364.05
841.24	1382.89
841.31	1322.17
841.39	1348.89
841.46	1374.60
841.53	1516.11
841.60	1544.07
841.68	1594.65
841.75	1631.31
841.82	1671.65
841.89	1620.35
841.97	1615.54
842.04	1546.52
842.11	1560.65
842.18	1577.96
842.26	1629.88
842.33	1621.48
842.40	1656.29
842.47	1641.96
842.55	1637.04
842.62	1604.58
842.69	1642.37
842.76	1654.76
842.84	1712.41
842.91	1756.54
842.98	1912.70
843.05	2000.35
843.12	2086.06
843.20	2039.37
843.27	2033.33
843.34	2046.84
843.41	2027.69
843.49	1973.73
843.56	1926.32
843.63	1930.01
843.70	1968.10
843.77	1962.47
843.85	2070.39
843.92	2067.73
843.99	2142.58
844.06	2198.39
844.14	2319.12
844.21	2347.79
844.28	2426.13
844.35	2427.46
844.42	2453.88
844.50	2440.15
844.57	2526.78
844.64	2516.34
844.71	2553.41
844.78	2582.59
844.86	2606.35
844.93	2652.63
845.00	2662.77
845.07	2636.45
845.14	2707.31
845.22	2679.56
845.29	2720.11
845.36	2719.09
845.43	2747.55
845.50	2754.52
845.57	2801.93
845.65	2878.52
845.72	3021.98
845.79	3101.96
845.86	3237.22
845.93	3380.89
846.01	3455.33
846.08	3497.32
846.15	3472.23
846.22	3426.35
846.29	3431.78
846.36	3272.55
846.44	3286.68
846.51	3393.07
846.58	3530.29
846.65	3641.90
846.72	3922.78
846.80	4150.00
846.87	4430.27
846.94	4714.63
847.01	4914.20
847.08	5088.59
847.15	5274.34
847.22	5273.93
847.30	5247.10
847.37	5180.03
847.44	5075.99
847.51	4926.18
847.58	4872.73
847.65	4674.49
847.73	4676.95
847.80	4666.40
847.87	4655.34
847.94	4608.03
848.01	4623.90
848.08	4712.58
848.15	4714.83
848.23	4676.84
848.30	4667.42
848.37	4595.44
848.44	4625.64
848.51	4550.79
848.58	4633.12
848.65	4521.92
848.73	4541.27
848.80	4528.16
848.87	4748.73
848.94	4872.22
849.01	4929.97
849.08	4932.23
849.15	4997.04
849.23	5038.21
849.30	5030.43
849.37	4886.66
849.44	4864.95
849.51	4733.88
849.58	4584.28
849.65	4431.29
849.72	4408.87
849.79	4352.34
849.87	4292.44
849.94	4265.20
850.01	4269.30
850.08	4308.00
850.15	4523.55
850.22	4606.50
850.29	4715.96
850.36	4682.99
850.44	4839.04
850.51	4908.78
850.58	5032.78
850.65	5014.66
850.72	5030.43
850.79	5177.16
850.86	5404.59
850.93	5505.76
851.00	5642.67
851.07	5552.45
851.15	5541.50
851.22	5411.96
851.29	5365.78
851.36	5129.24
851.43	4936.42
851.50	4773.10
851.57	4932.02
851.64	4901.30
851.71	4990.29
851.78	5150.23
851.85	5448.01
851.92	5660.79
852.00	6041.92
852.07	6141.55
852.14	6299.04
852.21	6387.10
852.28	6430.52
852.35	6196.85
852.42	6044.68
852.49	5747.21
852.56	5498.08
852.63	5330.56
852.70	5231.33
852.77	5201.33
852.84	5208.80
852.92	5164.06
852.99	5166.21
853.06	5257.44
853.13	5309.05
853.20	5502.69
853.27	5679.32
853.34	5941.87
853.41	6217.53
853.48	6377.78
853.55	6644.33
853.62	6780.31
853.69	6901.55
853.76	7041.84
853.83	6818.40
853.90	6674.13
853.97	6471.58
854.04	6211.90
854.11	5852.58
854.18	5389.23
854.26	4987.93
854.33	4456.69
854.40	4115.80
854.47	3756.69
854.54	3592.75
854.61	3294.67
854.68	3196.26
854.75	3109.12
854.82	3181.93
854.89	3223.50
854.96	3414.99
855.03	3616.61
855.10	3935.17
855.17	4344.97
855.24	4854.20
855.31	5464.08
855.38	5647.07
855.45	5619.73
855.52	5598.43
855.59	5512.31
855.66	5360.05
855.73	5016.81
855.80	4606.39
855.87	4208.27
855.94	3963.54
856.01	3803.90
856.08	3624.60
856.15	3354.57
856.22	3096.94
856.29	2887.33
856.36	2726.56
856.43	2578.19
856.50	2479.48
856.57	2376.36
856.64	2382.20
856.71	2411.18
856.78	2438.41
856.85	2384.35
856.92	2291.06
856.99	2212.11
857.06	2068.76
857.13	1986.63
857.20	1920.69
857.27	1889.25
857.34	1957.76
857.41	1997.90
857.48	2123.64
857.55	2258.50
857.62	2319.84
857.69	2304.48
857.76	2319.43
857.83	2215.70
857.90	2178.63
857.97	2061.49
858.04	2027.39
858.11	2064.86
858.18	2161.53
858.25	2292.60
858.32	2389.57
858.39	2381.99
858.46	2437.49
858.53	2421.62
858.60	2387.42
858.67	2216.62
858.74	2171.56
858.81	2178.22
858.88	2388.55
858.95	2619.56
859.02	2847.29
859.09	3042.67
859.16	3208.04
859.23	3342.69
859.29	3405.98
859.36	3264.36
859.43	3160.73
859.50	3023.31
859.57	3029.97
859.64	3044.10
859.71	3095.81
859.78	3110.76
859.85	3157.35
859.92	3145.99
859.99	3157.87
860.06	3050.76
860.13	3013.38
860.20	2962.28
860.27	3099.29
860.34	3222.27
860.41	3410.07
860.48	3612.41
860.54	3826.42
860.61	3856.22
860.68	3905.37
860.75	3807.28
860.82	3809.94
860.89	3782.09
860.96	3776.35
861.03	3738.57
861.10	3881.21
861.17	3861.34
861.24	3933.74
861.31	3941.11
861.38	4100.65
861.45	4054.26
861.51	4067.37
861.58	4175.71
861.65	4342.21
861.72	4438.05
861.79	4622.78
861.86	4672.85
861.93	4771.26
862.00	4760.40
862.07	4875.50
862.14	4873.04
862.21	5027.35
862.27	5085.00
862.34	5174.81
862.41	5250.28
862.48	5606.72
862.55	5824.83
862.62	6141.76
862.69	6224.29
862.76	6404.92
862.83	6523.09
862.90	6806.22
862.96	6713.86
863.03	6743.86
863.10	6610.02
863.17	6653.13
863.24	6632.55
863.31	6891.21
863.38	6938.62
863.45	7063.24
863.52	7254.42
863.58	7408.22
863.65	7468.53
863.72	7518.40
863.79	7407.09
863.86	7441.29
863.93	7346.58
864.00	7257.59
864.07	7229.94
864.13	7394.19
864.20	7632.57
864.27	8057.73
864.34	8155.01
864.41	8467.74
864.48	8684.21
864.55	9114.69
864.62	9178.48
864.68	9250.57
864.75	9252.62
864.82	9411.03
864.89	9404.17
864.96	9400.79
865.03	9458.24
865.10	9783.15
865.16	10118.50
865.23	10310.50
865.30	10494.20
865.37	10776.82
865.44	11091.29
865.51	11396.33
865.58	11563.55
865.64	11570.41
865.71	11723.39
865.78	11955.84
865.85	12118.34
865.92	12071.65
865.99	11982.77
866.05	11861.53
866.12	11736.91
866.19	11874.53
866.26	11850.26
866.33	11884.47
866.40	11533.55
866.46	11615.67
866.53	11596.11
866.60	12157.25
866.67	12312.49
866.74	12536.54
866.81	12454.01
866.87	12617.33
866.94	12634.84
867.01	12848.03
867.08	12544.93
867.15	12550.26
867.21	12025.57
867.28	11721.34
867.35	11295.67
867.42	10991.35
867.49	10805.80
867.56	11000.87
867.62	11237.61
867.69	11661.85
867.76	11730.76
867.83	12149.06
867.90	12634.12
867.96	13438.57
868.03	13870.59
868.10	14425.07
868.17	13964.07
868.24	14117.06
868.30	14031.56
868.37	14647.89
868.44	14454.46
868.51	14043.23
868.58	13909.91
868.64	13941.34
868.71	14129.04
868.78	14292.77
868.85	14043.23
868.92	13751.19
868.98	13237.15
869.05	12903.23
869.12	12471.11
869.19	11865.62
869.25	10938.20
869.32	10362.62
869.39	10033.92
869.46	9940.74
869.53	9822.88
869.59	9831.58
869.66	9791.85
869.73	10151.58
869.80	10662.65
869.86	11404.22
869.93	11881.29
870.00	12360.11
870.07	12589.07
870.14	12913.57
870.20	12742.15
870.27	12493.84
870.34	11891.94
870.41	11351.58
870.47	10491.95
870.54	10036.17
870.61	9556.23
870.68	9382.05
870.74	9191.18
870.81	9075.27
870.88	8788.14
870.95	8658.20
871.01	8621.64
871.08	8556.93
871.15	8418.89
871.22	8455.76
871.28	8370.05
871.35	8475.93
871.42	8512.59
871.49	8869.96
871.55	9051.82
871.62	9381.23
871.69	9652.69
871.76	10044.26
871.82	10303.13
871.89	10618.92
871.96	10475.87
872.02	10366.20
872.09	9851.86
872.16	9526.02
872.23	8803.91
872.29	8253.11
872.36	7436.69
872.43	6898.17
872.50	6344.61
872.56	5977.00
872.63	5526.44
872.70	5179.72
872.76	4829.21
872.83	4644.28
872.90	4320.09
872.97	4207.35
873.03	4156.45
873.10	4180.11
873.17	4170.69
873.23	4212.47
873.30	4151.85
873.37	4242.26
873.44	4125.43
873.50	4102.18
873.57	3951.04
873.64	3902.71
873.70	3859.70
873.77	3912.54
873.84	3895.24
873.91	3942.24
873.97	3989.03
874.04	4152.56
874.11	4198.44
874.17	4362.58
874.24	4372.00
874.31	4413.58
874.37	4256.40
874.44	4170.79
874.51	4031.94
874.57	3925.75
874.64	3676.10
874.71	3560.09
874.77	3406.59
874.84	3323.14
874.91	3251.76
874.98	3194.93
875.04	3058.13
875.11	2942.32
875.18	2720.11
875.24	2563.85
875.31	2438.93
875.38	2401.14
875.44	2311.44
875.51	2376.67
875.58	2341.85
875.64	2474.97
875.71	2492.48
875.78	2589.86
875.84	2638.40
875.91	2651.71
875.98	2580.24
876.04	2529.24
876.11	2448.45
876.18	2427.87
876.24	2412.40
876.31	2436.57
876.37	2529.96
876.44	2628.16
876.51	2687.65
876.57	2800.09
876.64	2761.58
876.71	2756.46
876.77	2685.71
876.84	2641.47
876.91	2520.95
876.97	2458.28
877.04	2373.80
877.11	2485.11
877.17	2594.67
877.24	2779.71
877.31	2919.99
877.37	3008.98
877.44	3058.13
877.50	3151.82
877.57	3107.59
877.64	3077.38
877.70	2996.90
877.77	2908.12
877.84	2897.77
877.90	3022.80
877.97	3081.48
878.03	3185.31
878.10	3221.76
878.17	3318.12
878.23	3272.04
878.30	3273.58
878.37	3215.00
878.43	3159.61
878.50	3110.66
878.56	3144.25
878.63	3172.20
878.70	3367.27
878.76	3461.48
878.83	3636.68
878.89	3775.74
878.96	3878.75
879.03	3954.63
879.09	3965.07
879.16	3906.60
879.22	3851.82
879.29	3883.46
879.36	3969.48
879.42	3918.99
879.49	4011.25
879.55	4062.25
879.62	4129.93
879.69	4179.80
879.75	4243.80
879.82	4209.39
879.88	4266.74
879.95	4242.06
880.02	4264.38
880.08	4367.29
880.15	4572.91
880.21	4623.08
880.28	4765.42
880.34	4763.47
880.41	4913.38
880.48	4836.99
880.54	4968.37
880.61	4935.50
880.67	5107.63
880.74	5138.25
880.80	5239.52
880.87	5283.04
880.94	5321.85
881.00	5403.16
881.07	5529.31
881.13	5537.40
881.20	5549.18
881.26	5561.98
881.33	5672.16
881.40	5779.88
881.46	5795.44
881.53	5830.87
881.59	5857.60
881.66	5839.27
881.72	5999.01
881.79	6116.05
881.85	6339.38
881.92	6366.42
881.99	6645.97
882.05	6767.00
882.12	6944.97
882.18	7065.18
882.25	7141.37
882.31	7171.68
882.38	7269.47
882.44	7113.41
882.51	7270.90
882.57	7250.42
882.64	7295.07
882.71	7383.34
882.77	7453.89
882.84	7597.04
882.90	7849.97
882.97	8046.26
883.03	8245.63
883.10	8411.93
883.16	8622.56
883.23	8784.25
883.29	8999.29
883.36	8899.86
883.42	8900.68
883.49	8877.13
883.55	9029.90
883.62	9051.51
883.68	9096.87
883.75	9011.37
883.81	9170.50
883.88	9257.95
883.94	9527.25
884.01	9629.96
884.07	9703.48
884.14	9695.70
884.20	9974.02
884.27	10168.27
884.34	10406.86
884.40	10393.95
884.47	10486.32
884.53	10513.96
884.60	10749.69
884.66	10680.57
884.73	10855.16
884.79	10677.49
884.86	10602.13
884.92	10498.91
884.98	10480.48
885.05	10500.04
885.11	10438.50
885.18	10449.15
885.24	10494.71
885.31	10337.02
885.37	10445.56
885.44	10483.55
885.50	10850.75
885.57	10911.99
885.63	11007.73
885.70	11089.65
885.76	11148.22
885.83	11204.44
885.89	11364.08
885.96	11148.22
886.02	11062.62
886.09	10760.64
886.15	10554.21
886.22	10245.48
886.28	10038.94
886.35	9630.88
886.41	9398.64
886.47	9043.52
886.54	8940.82
886.60	8513.51
886.67	8455.96
886.73	8208.05
886.80	8197.40
886.86	8134.53
886.93	8202.93
886.99	8194.33
887.06	8256.08
887.12	8233.96
887.19	8311.37
887.25	8250.75
887.31	8400.05
887.38	8393.50
887.44	8528.36
887.51	8544.13
887.57	8678.37
887.64	8700.28
887.70	8984.85
887.77	9059.60
887.83	9405.40
887.89	9439.09
887.96	9493.87
888.02	9356.15
888.09	9387.38
888.15	9158.41
888.22	9019.77
888.28	8788.35
888.34	8654.10
888.41	8222.70
888.47	8159.41
888.54	7942.94
888.60	7968.54
888.67	7839.93
888.73	7884.68
888.79	7889.59
888.86	8123.58
888.92	8185.94
888.99	8575.36
889.05	8716.67
889.11	9074.65
889.18	9076.80
889.24	9281.50
889.31	9233.78
889.37	9234.39
889.44	8958.63
889.50	8642.63
889.56	8262.53
>>>>>End Processed Spectral Data<<<<<
