SpectraSuite Data File
++++++++++++++++++++++++++++++++++++
Date: Wed Jul 12 16:03:47 CDT 2017
User: Owner
Dark Spectrum Present: Yes
Reference Spectrum Present: Yes
Number of Sampled Component Spectra: 1
Spectrometers: USB4H04489
Integration Time (usec): 50000 (USB4H04489)
Spectra Averaged: 20 (USB4H04489)
Boxcar Smoothing: 0 (USB4H04489)
Correct for Electrical Dark: No (USB4H04489)
Strobe/Lamp Enabled: No (USB4H04489)
Correct for Detector Non-linearity: No (USB4H04489)
Correct for Stray Light: No (USB4H04489)
Number of Pixels in Processed Spectrum: 3648
>>>>>Begin Processed Spectral Data<<<<<
580.28	-0.10
580.38	-0.10
580.48	-0.10
580.59	1.23
580.69	11.16
580.79	-21.50
580.90	19.46
581.00	-18.53
581.11	2.15
581.21	-4.40
581.31	-15.97
581.42	-5.32
581.52	15.56
581.62	-8.60
581.73	-3.69
581.83	0.10
581.93	-10.75
582.04	20.27
582.14	1042.72
582.25	1609.81
582.35	1673.80
582.45	1745.48
582.56	1797.40
582.66	1921.71
582.76	2012.64
582.87	2065.48
582.97	2172.38
583.07	2210.07
583.18	2267.10
583.28	2307.04
583.38	2344.82
583.49	2323.63
583.59	2352.81
583.70	2248.98
583.80	2163.37
583.90	2118.42
584.01	2092.61
584.11	2072.65
584.21	2194.81
584.32	2177.09
584.42	2238.94
584.52	2251.43
584.63	2257.17
584.73	2266.38
584.83	2322.40
584.94	2310.83
585.04	2258.40
585.14	2187.13
585.25	2103.57
585.35	2017.66
585.45	1996.36
585.56	1995.54
585.66	2107.87
585.76	2064.15
585.87	1935.02
585.97	1734.63
586.07	1589.63
586.18	1376.95
586.28	1270.76
586.38	1283.26
586.49	1373.68
586.59	1437.06
586.69	1464.81
586.80	1492.56
586.90	1589.43
587.00	1606.84
587.11	1678.82
587.21	1753.47
587.31	1795.04
587.41	1881.88
587.52	1980.49
587.62	2041.21
587.72	2163.37
587.83	2231.06
587.93	2366.22
588.03	2421.01
588.14	2465.96
588.24	2517.26
588.34	2592.83
588.45	2605.94
588.55	2671.88
588.65	2630.72
588.75	2564.36
588.86	2474.46
588.96	2441.08
589.06	2368.58
589.17	2387.62
589.27	2452.54
589.37	2509.48
589.48	2524.43
589.58	2529.96
589.68	2585.97
589.78	2603.89
589.89	2545.83
589.99	2639.22
590.09	2717.65
590.20	2630.62
590.30	2522.48
590.40	2458.59
590.50	2324.34
590.61	2301.92
590.71	2319.84
590.81	2503.44
590.92	2437.29
591.02	2314.82
591.12	2103.78
591.22	1825.05
591.33	1555.94
591.43	1482.01
591.53	1414.53
591.64	1472.28
591.74	1553.90
591.84	1627.42
591.94	1658.45
592.05	1694.90
592.15	1744.56
592.25	1841.02
592.35	1855.56
592.46	1968.51
592.56	2014.59
592.66	2148.11
592.76	2242.73
592.87	2363.97
592.97	2404.21
593.07	2590.37
593.18	2594.47
593.28	2677.82
593.38	2663.28
593.48	2723.70
593.59	2726.87
593.69	2837.05
593.79	2864.08
593.89	2854.46
594.00	2779.30
594.10	2774.28
594.20	2637.58
594.30	2602.56
594.41	2604.61
594.51	2701.78
594.61	2738.03
594.71	2796.50
594.82	2860.81
594.92	2902.28
595.02	2922.35
595.12	2935.46
595.23	3009.59
595.33	3037.96
595.43	3017.68
595.53	3001.50
595.64	2928.80
595.74	2811.35
595.84	2690.93
595.94	2717.65
596.04	2728.71
596.15	2720.93
596.25	2504.56
596.35	2342.47
596.45	1985.20
596.56	1680.15
596.66	1474.95
596.76	1432.55
596.86	1458.36
596.97	1553.90
597.07	1591.37
597.17	1643.49
597.27	1688.96
597.37	1750.81
597.48	1806.21
597.58	1868.46
597.68	1870.51
597.78	2039.78
597.89	2097.12
597.99	2227.78
598.09	2311.54
598.19	2419.57
598.29	2561.80
598.40	2714.99
598.50	2858.25
598.60	2910.47
598.70	3022.60
598.80	3090.08
598.91	3126.94
599.01	3153.46
599.11	3260.26
599.21	3362.76
599.31	3258.52
599.42	3244.08
599.52	3128.48
599.62	3033.25
599.72	2945.59
599.82	2967.51
599.93	3051.37
600.03	3162.88
600.13	3155.82
600.23	3231.59
600.33	3286.58
600.44	3239.89
600.54	3275.01
600.64	3396.45
600.74	3385.50
600.84	3441.61
600.95	3338.39
601.05	3220.84
601.15	3050.76
601.25	2969.66
601.35	2854.46
601.46	3046.25
601.56	3077.07
601.66	3064.79
601.76	2719.60
601.86	2459.30
601.96	2035.17
602.07	1676.26
602.17	1539.36
602.27	1561.68
602.37	1568.13
602.47	1596.80
602.57	1682.20
602.68	1743.64
602.78	1731.05
602.88	1753.57
602.98	1821.98
603.08	1842.05
603.18	1882.70
603.29	1981.31
603.39	1987.04
603.49	2073.88
603.59	2142.99
603.69	2277.65
603.79	2328.44
603.90	2480.29
604.00	2523.40
604.10	2700.45
604.20	2768.75
604.30	2790.66
604.40	2789.54
604.51	2846.88
604.61	2895.73
604.71	2998.94
604.81	2962.90
604.91	2916.41
605.01	2816.57
605.11	2699.94
605.22	2534.87
605.32	2548.49
605.42	2511.83
605.52	2645.67
605.62	2634.92
605.72	2688.06
605.83	2644.23
605.93	2761.58
606.03	2757.18
606.13	2791.89
606.23	2848.52
606.33	2891.02
606.43	2864.90
606.53	2835.62
606.64	2567.85
606.74	2474.36
606.84	2301.92
606.94	2281.23
607.04	2377.59
607.14	2547.57
607.24	2441.69
607.35	2184.88
607.45	1884.03
607.55	1564.96
607.65	1159.36
607.75	1004.12
607.85	1022.65
607.95	1007.70
608.05	1029.72
608.16	1067.20
608.26	1037.09
608.36	1049.58
608.46	1038.01
608.56	1076.00
608.66	1038.73
608.76	1077.44
608.86	1043.85
608.96	1100.17
609.07	1104.78
609.17	1127.92
609.27	1133.76
609.37	1197.75
609.47	1251.10
609.57	1323.09
609.67	1337.84
609.77	1414.63
609.87	1444.53
609.98	1483.34
610.08	1477.71
610.18	1490.72
610.28	1527.38
610.38	1599.16
610.48	1609.81
610.58	1599.57
610.68	1533.31
610.78	1507.51
610.88	1444.64
610.98	1399.99
611.09	1410.23
611.19	1471.57
611.29	1442.38
611.39	1519.80
611.49	1504.13
611.59	1547.55
611.69	1561.99
611.79	1613.18
611.89	1592.81
611.99	1641.14
612.09	1672.47
612.20	1659.37
612.30	1622.09
612.40	1512.12
612.50	1481.91
612.60	1415.86
612.70	1388.83
612.80	1474.33
612.90	1586.77
613.00	1518.06
613.10	1410.54
613.20	1286.33
613.30	1105.49
613.40	899.16
613.50	826.66
613.61	802.70
613.71	852.67
613.81	856.67
613.91	883.49
614.01	893.94
614.11	890.87
614.21	897.83
614.31	932.44
614.41	924.86
614.51	924.66
614.61	942.27
614.71	989.99
614.81	1007.81
614.91	1006.88
615.01	1035.76
615.11	1082.86
615.22	1111.74
615.32	1141.84
615.42	1191.51
615.52	1198.98
615.62	1235.64
615.72	1269.64
615.82	1263.49
615.92	1257.76
616.02	1290.63
616.12	1273.53
616.22	1312.44
616.32	1264.62
616.42	1258.27
616.52	1258.17
616.62	1187.11
616.72	1164.88
616.82	1167.96
616.92	1169.59
617.02	1186.59
617.12	1200.93
617.22	1212.60
617.32	1173.18
617.42	1145.63
617.52	1159.15
617.62	1205.64
617.72	1180.24
617.83	1227.35
617.93	1188.44
618.03	1189.77
618.13	1130.38
618.23	1068.63
618.33	1066.27
618.43	1042.62
618.53	1048.76
618.63	1028.59
618.73	1064.94
618.83	1020.61
618.93	980.47
619.03	861.79
619.13	777.82
619.23	683.61
619.33	626.58
619.43	580.70
619.53	585.62
619.63	605.48
619.73	586.44
619.83	583.77
619.93	587.66
620.03	590.02
620.13	591.86
620.23	578.55
620.33	594.93
620.43	606.81
620.53	616.23
620.63	617.46
620.73	674.50
620.83	686.38
620.93	705.01
621.03	756.62
621.13	740.75
621.23	821.24
621.33	818.27
621.43	863.42
621.53	883.49
621.63	926.60
621.73	990.40
621.83	1031.05
621.93	1064.43
622.03	1148.71
622.13	1157.31
622.23	1210.14
622.33	1223.15
622.43	1275.88
622.53	1257.76
622.63	1248.95
622.73	1283.26
622.83	1288.99
622.93	1284.08
623.03	1243.22
623.13	1222.53
623.23	1195.40
623.33	1168.16
623.42	1225.09
623.52	1215.26
623.62	1299.64
623.72	1297.70
623.82	1312.44
623.92	1279.26
624.02	1230.93
624.12	1160.58
624.22	1143.07
624.32	1139.49
624.42	1170.93
624.52	1157.51
624.62	1171.44
624.72	1112.05
624.82	1096.58
624.92	1031.36
625.02	1027.26
625.12	1031.87
625.22	1072.62
625.32	1118.81
625.42	1173.38
625.52	1150.14
625.62	1071.80
625.72	1004.22
625.82	954.97
625.91	907.56
626.01	925.68
626.11	972.48
626.21	1032.28
626.31	1065.25
626.41	1098.84
626.51	1094.95
626.61	1169.49
626.71	1188.33
626.81	1209.22
626.91	1201.95
627.01	1268.00
627.11	1299.33
627.21	1363.64
627.31	1499.63
627.41	1607.55
627.51	1631.62
627.60	1634.89
627.70	1562.70
627.80	1437.67
627.90	1321.45
628.00	1249.47
628.10	1238.51
628.20	1331.49
628.30	1374.60
628.40	1460.30
628.50	1491.23
628.60	1612.88
628.70	1669.71
628.80	1799.04
628.89	1839.18
628.99	1965.54
629.09	2005.88
629.19	2098.45
629.29	2217.23
629.39	2242.73
629.49	2273.65
629.59	2379.84
629.69	2422.85
629.79	2459.61
629.89	2422.13
629.98	2438.72
630.08	2415.89
630.18	2442.10
630.28	2445.89
630.38	2548.08
630.48	2571.74
630.58	2737.01
630.68	2856.51
630.78	2967.20
630.88	3054.65
630.98	3089.98
631.07	3120.90
631.17	3208.76
631.27	3258.93
631.37	3366.45
631.47	3416.01
631.57	3427.48
631.67	3478.78
631.77	3534.49
631.87	3649.58
631.96	3779.73
632.06	3981.76
632.16	3992.82
632.26	3692.69
632.36	3401.47
632.46	2820.56
632.56	2190.10
632.66	1618.30
632.75	1324.93
632.85	1081.12
632.95	981.08
633.05	976.37
633.15	998.49
633.25	952.72
633.35	997.05
633.45	1003.81
633.55	977.70
633.64	978.62
633.74	970.33
633.84	958.45
633.94	979.34
634.04	964.59
634.14	960.29
634.24	971.66
634.33	985.99
634.43	1038.83
634.53	1105.90
634.63	1141.33
634.73	1223.35
634.83	1290.83
634.93	1381.25
635.02	1439.11
635.12	1529.63
635.22	1621.17
635.32	1718.96
635.42	1781.94
635.52	1876.35
635.62	2014.28
635.71	2083.91
635.81	2176.48
635.91	2310.72
636.01	2398.07
636.11	2486.54
636.21	2572.35
636.31	2659.90
636.40	2622.01
636.50	2687.65
636.60	2678.85
636.70	2750.73
636.80	2715.09
636.90	2808.07
636.99	2701.37
637.09	2653.04
637.19	2549.93
637.29	2431.35
637.39	2340.62
637.49	2397.25
637.58	2457.66
637.68	2535.90
637.78	2619.45
637.88	2673.93
637.98	2666.46
638.08	2761.38
638.17	2679.15
638.27	2644.03
638.37	2624.06
638.47	2702.60
638.57	2768.34
638.66	2796.40
638.76	2660.11
638.86	2598.57
638.96	2431.04
639.06	2288.40
639.16	2239.45
639.25	2293.21
639.35	2365.51
639.45	2509.48
639.55	2536.72
639.65	2455.00
639.74	2169.00
639.84	1903.59
639.94	1610.83
640.04	1334.25
640.14	1209.43
640.23	1236.87
640.33	1249.88
640.43	1301.48
640.53	1321.14
640.63	1330.97
640.73	1311.62
640.82	1348.08
640.92	1328.52
641.02	1340.50
641.12	1292.68
641.21	1307.42
641.31	1273.53
641.41	1313.46
641.51	1363.13
641.61	1448.12
641.70	1493.38
641.80	1655.58
641.90	1678.82
642.00	1847.98
642.10	1940.35
642.19	2128.04
642.29	2208.22
642.39	2381.07
642.49	2523.40
642.59	2726.46
642.68	2905.45
642.78	3037.14
642.88	3318.84
642.98	3485.23
643.07	3666.48
643.17	3868.92
643.27	4007.57
643.37	4270.12
643.46	4286.30
643.56	4527.55
643.66	4562.46
643.76	4615.61
643.86	4652.68
643.95	4747.29
644.05	4764.80
644.15	4964.79
644.25	4909.49
644.34	4798.08
644.44	4600.35
644.54	4471.02
644.64	4287.01
644.73	4294.80
644.83	4235.81
644.93	4424.33
645.03	4559.39
645.12	4662.30
645.22	4806.48
645.32	4852.05
645.42	4870.07
645.51	4828.60
645.61	4727.12
645.71	4812.21
645.81	4961.72
645.90	5123.40
646.00	5166.41
646.10	5141.94
646.20	4912.16
646.29	4688.11
646.39	4288.65
646.49	4131.47
646.59	4160.76
646.68	4330.33
646.78	4603.42
646.88	4853.28
646.98	4755.79
647.07	4451.87
647.17	3909.06
647.27	3378.53
647.37	2791.69
647.46	2342.26
647.56	2257.17
647.66	2342.57
647.75	2331.71
647.85	2402.78
647.95	2463.91
648.05	2455.31
648.14	2440.97
648.24	2475.28
648.34	2440.15
648.44	2485.93
648.53	2444.35
648.63	2443.43
648.73	2411.28
648.82	2406.26
648.92	2434.32
649.02	2541.12
649.12	2670.04
649.21	2819.34
649.31	2986.96
649.41	3160.53
649.50	3346.28
649.60	3582.61
649.70	3783.93
649.80	4076.07
649.89	4325.21
649.99	4662.10
650.09	4822.35
650.18	5176.45
650.28	5443.60
650.38	5821.76
650.47	6152.00
650.57	6558.93
650.67	6873.90
650.77	7148.64
650.86	7489.22
650.96	7795.90
651.06	7958.30
651.15	8242.87
651.25	8267.85
651.35	8422.27
651.44	8494.77
651.54	8751.69
651.64	8695.88
651.73	8962.01
651.83	8724.55
651.93	8618.57
652.03	8119.48
652.12	7862.36
652.22	7497.31
652.32	7595.30
652.41	7598.27
652.51	7934.34
652.61	8135.45
652.70	8427.19
652.80	8493.54
652.90	8751.18
652.99	8623.48
653.09	8733.26
653.19	8501.32
653.28	8632.09
653.38	8851.83
653.48	9154.83
653.57	9322.05
653.67	9341.50
653.77	8919.72
653.86	8436.20
653.96	7921.13
654.06	7406.07
654.15	7198.51
654.25	7459.93
654.35	7905.98
654.44	8470.09
654.54	8695.06
654.64	8324.69
654.73	7315.75
654.83	6338.26
654.93	5239.22
655.02	4271.14
655.12	3551.49
655.22	3472.23
655.31	3567.36
655.41	3653.06
655.51	3613.54
655.60	3712.25
655.70	3745.84
655.79	3709.69
655.89	3662.89
655.99	3679.59
656.08	3621.73
656.18	3595.62
656.28	3469.98
656.37	3485.64
656.47	3401.68
656.57	3484.21
656.66	3548.62
656.76	3797.86
656.85	3949.71
656.95	4167.72
657.05	4403.03
657.14	4630.56
657.24	4936.94
657.34	5295.74
657.43	5545.39
657.53	5971.67
657.63	6297.09
657.72	6662.14
657.82	7032.42
657.91	7429.83
658.01	7877.10
658.11	8384.69
658.20	8904.98
658.30	9371.71
658.39	9838.85
658.49	10506.18
658.59	10853.93
658.68	11356.91
658.78	11752.27
658.88	11976.32
658.97	11960.85
659.07	12316.18
659.16	12243.47
659.26	12531.01
659.36	12660.24
659.45	12975.52
659.55	12939.78
659.64	12846.81
659.74	12140.05
659.84	11829.17
659.93	11009.98
660.03	10760.03
660.12	10655.99
660.22	10947.01
660.32	11152.01
660.41	11634.92
660.51	11906.17
660.60	12123.98
660.70	12234.87
660.80	12496.19
660.89	12263.03
660.99	12281.26
661.08	12221.36
661.18	12704.47
661.28	12900.97
661.37	13250.67
661.47	13300.33
661.56	12958.52
661.66	12373.72
661.75	11538.15
661.85	10639.91
661.95	10182.91
662.04	10184.86
662.14	10734.84
662.23	11444.05
662.33	12017.28
662.43	11938.94
662.52	11200.24
662.62	9791.75
662.71	8393.60
662.81	6658.36
662.90	5277.51
663.00	4586.84
663.10	4503.48
663.19	4548.74
663.29	4702.34
663.38	4706.85
663.48	4788.15
663.57	4742.38
663.67	4736.75
663.77	4614.18
663.86	4515.05
663.96	4437.54
664.05	4359.92
664.15	4183.39
664.24	4085.60
664.34	3928.52
664.43	3805.84
664.53	3785.98
664.63	3819.05
664.72	3906.40
664.82	4094.20
664.91	4224.35
665.01	4490.89
665.10	4666.40
665.20	5020.39
665.29	5248.94
665.39	5578.05
665.48	5845.52
665.58	6190.09
665.68	6429.60
665.77	6771.81
665.87	7111.78
665.96	7652.24
666.06	7975.30
666.15	8597.58
666.25	8841.59
666.34	9237.57
666.44	9660.06
666.53	10242.92
666.63	10501.98
666.72	10889.77
666.82	11281.34
666.91	11521.87
667.01	11526.89
667.11	11686.32
667.20	11818.32
667.30	11910.99
667.39	12169.95
667.49	12414.58
667.58	12310.44
667.68	12241.53
667.77	11579.62
667.87	11208.74
667.96	10436.86
668.06	10088.60
668.15	10064.33
668.25	10116.25
668.34	10274.15
668.44	10619.64
668.53	10829.76
668.63	11099.48
668.72	11238.33
668.82	11314.92
668.91	11407.08
669.01	11325.27
669.10	11082.17
669.20	11465.66
669.29	11610.45
669.39	11916.82
669.48	12200.36
669.58	12361.74
669.67	11849.96
669.77	11135.42
669.86	10377.06
669.96	9702.87
670.05	9168.04
670.15	9481.38
670.24	9834.24
670.34	10652.92
670.43	11113.61
670.53	11440.26
670.62	10696.44
670.72	9546.71
670.81	8018.72
670.91	6525.34
671.00	5106.81
671.10	4479.62
671.19	4264.49
671.29	4345.28
671.38	4423.92
671.48	4508.50
671.57	4582.64
671.67	4618.58
671.76	4659.64
671.86	4779.75
671.95	4644.59
672.04	4714.73
672.14	4705.11
672.23	4684.32
672.33	4606.50
672.42	4570.66
672.52	4602.09
672.61	4602.60
672.71	4570.14
672.80	4812.42
672.90	4927.21
672.99	5187.50
673.09	5332.91
673.18	5654.13
673.28	5828.83
673.37	6284.09
673.46	6573.98
673.56	7074.91
673.65	7353.85
673.75	7801.63
673.84	8123.47
673.94	8688.20
674.03	9242.28
674.13	9995.73
674.22	10920.90
674.32	12010.42
674.41	12356.62
674.50	12622.04
674.60	12275.83
674.69	11836.85
674.79	10963.49
674.88	10205.64
674.98	9471.24
675.07	9459.77
675.17	9287.13
675.26	9262.25
675.35	9235.52
675.45	9395.16
675.54	9378.06
675.64	9560.23
675.73	9690.48
675.83	9981.39
675.92	9917.19
676.01	9660.68
676.11	9170.80
676.20	8642.94
676.30	8216.04
676.39	8027.32
676.49	7922.77
676.58	7998.44
676.67	8183.17
676.77	8488.32
676.86	8556.82
676.96	8764.79
677.05	8816.51
677.15	9005.43
677.24	9048.64
677.33	9077.42
677.43	8982.49
677.52	9067.48
677.62	9249.86
677.71	9581.93
677.80	9763.38
677.90	10025.22
677.99	9574.87
678.09	9153.91
678.18	8557.03
678.27	7841.06
678.37	7238.03
678.46	7228.20
678.56	7526.80
678.65	8012.47
678.74	8554.88
678.84	9124.42
678.93	8824.08
679.03	8228.53
679.12	7071.12
679.21	5870.09
679.31	4492.01
679.40	3516.77
679.50	2996.18
679.59	2878.42
679.68	2820.77
679.78	2901.15
679.87	2858.25
679.97	2913.34
680.06	2830.09
680.15	2824.66
680.25	2752.88
680.34	2693.18
680.44	2553.71
680.53	2467.70
680.62	2296.28
680.72	2149.34
680.81	2029.54
680.90	1920.18
681.00	1754.60
681.09	1677.49
681.19	1601.00
681.28	1605.10
681.37	1578.16
681.47	1629.67
681.56	1618.30
681.65	1715.28
681.75	1745.89
681.84	1808.05
681.94	1879.01
682.03	1981.20
682.12	2054.22
682.22	2118.01
682.31	2205.25
682.40	2287.89
682.50	2409.13
682.59	2575.12
682.68	2625.70
682.78	2798.45
682.87	2932.49
682.96	3054.24
683.06	3148.14
683.15	3300.20
683.25	3489.64
683.34	3617.12
683.43	3721.16
683.53	3843.42
683.62	3972.04
683.71	4074.23
683.81	4112.94
683.90	4183.08
683.99	4137.10
684.09	4216.46
684.18	4271.96
684.27	4348.04
684.37	4424.64
684.46	4430.58
684.55	4374.77
684.65	4168.54
684.74	3973.26
684.83	3769.29
684.93	3552.00
685.02	3533.46
685.11	3492.50
685.21	3638.22
685.30	3694.84
685.39	3847.62
685.49	3882.03
685.58	3946.33
685.67	3981.25
685.77	4077.20
685.86	4037.88
685.95	4031.73
686.05	4011.25
686.14	4110.68
686.23	4049.96
686.33	4207.14
686.42	4273.29
686.51	4363.30
686.61	4308.62
686.70	4137.20
686.79	3880.29
686.88	3600.74
686.98	3275.32
687.07	3178.14
687.16	3254.22
687.26	3468.34
687.35	3642.72
687.44	3963.74
687.54	3979.72
687.63	3881.11
687.72	3460.56
687.82	2991.16
687.91	2403.80
688.00	1808.66
688.09	1496.96
688.19	1367.12
688.28	1285.61
688.37	1312.13
688.47	1252.23
688.56	1257.04
688.65	1244.24
688.74	1210.04
688.84	1182.29
688.93	1177.27
689.02	1135.19
689.12	1101.40
689.21	1064.53
689.30	1018.76
689.39	953.74
689.49	902.54
689.58	840.28
689.67	762.56
689.77	697.13
689.86	664.26
689.95	607.73
690.04	581.62
690.14	536.77
690.23	547.11
690.32	501.04
690.42	505.54
690.51	506.36
690.60	496.12
690.69	502.47
690.79	502.26
690.88	468.98
690.97	475.44
691.06	450.76
691.16	476.05
691.25	443.18
691.34	451.27
691.43	455.98
691.53	478.82
691.62	440.42
691.71	473.18
691.80	454.75
691.90	462.84
691.99	450.25
692.08	453.01
692.18	456.49
692.27	470.93
692.36	433.96
692.45	457.62
692.55	431.81
692.64	454.03
692.73	457.62
692.82	444.41
692.91	452.50
693.01	433.55
693.10	446.56
693.19	450.66
693.28	422.80
693.38	444.10
693.47	434.58
693.56	436.32
693.65	422.70
693.75	439.60
693.84	426.18
693.93	457.72
694.02	434.17
694.12	444.82
694.21	427.51
694.30	457.41
694.39	453.42
694.48	446.35
694.58	436.73
694.67	439.80
694.76	410.11
694.85	393.21
694.95	399.97
695.04	420.76
695.13	391.16
695.22	423.72
695.31	399.56
695.41	414.00
695.50	403.04
695.59	403.86
695.68	404.06
695.78	387.48
695.87	378.06
695.96	406.21
696.05	391.88
696.14	410.72
696.24	395.36
696.33	419.63
696.42	390.85
696.51	379.90
696.60	372.63
696.70	353.79
696.79	360.34
696.88	371.19
696.97	341.50
697.06	359.01
697.16	351.84
697.25	365.56
697.34	367.10
697.43	386.14
697.52	397.20
697.62	404.99
697.71	392.49
697.80	421.16
697.89	426.08
697.98	431.71
698.08	419.32
698.17	433.55
698.26	406.01
698.35	447.69
698.44	441.95
698.53	450.55
698.63	454.85
698.72	500.01
698.81	475.54
698.90	486.09
698.99	498.89
699.08	477.48
699.18	493.36
699.27	509.13
699.36	503.39
699.45	541.28
699.54	532.57
699.64	546.40
699.73	587.36
699.82	614.08
699.91	639.27
700.00	679.21
700.09	714.13
700.19	702.66
700.28	666.82
700.37	632.00
700.46	604.97
700.55	573.84
700.64	514.14
700.73	489.87
700.83	517.52
700.92	479.02
701.01	489.67
701.10	479.94
701.19	474.82
701.28	480.25
701.38	485.68
701.47	488.44
701.56	479.02
701.65	513.94
701.74	514.65
701.83	485.88
701.92	510.25
702.02	499.91
702.11	489.77
702.20	489.67
702.29	512.30
702.38	528.68
702.47	558.58
702.56	525.82
702.66	567.70
702.75	555.51
702.84	551.93
702.93	550.39
703.02	554.79
703.11	532.27
703.20	547.93
703.29	564.11
703.39	551.31
703.48	596.57
703.57	594.73
703.66	631.70
703.75	607.22
703.84	685.86
703.93	662.11
704.02	697.33
704.12	726.52
704.21	758.36
704.30	803.73
704.39	868.65
704.48	908.48
704.57	951.79
704.66	946.57
704.75	963.06
704.84	965.51
704.94	1015.89
705.03	962.14
705.12	999.00
705.21	983.54
705.30	1078.36
705.39	1090.34
705.48	1139.08
705.57	1130.38
705.66	1184.34
705.75	1267.59
705.85	1317.66
705.94	1324.01
706.03	1356.06
706.12	1392.00
706.21	1431.02
706.30	1428.97
706.39	1477.20
706.48	1519.90
706.57	1625.47
706.66	1644.72
706.75	1784.91
706.85	1825.05
706.94	1956.53
707.03	2102.44
707.12	2349.33
707.21	2559.35
707.30	2823.02
707.39	2836.54
707.48	2710.18
707.57	2529.04
707.66	2180.17
707.75	1795.76
707.84	1443.31
707.93	1144.92
708.03	999.82
708.12	923.02
708.21	885.13
708.30	877.25
708.39	869.57
708.48	854.11
708.57	876.53
708.66	877.55
708.75	908.17
708.84	889.43
708.93	937.15
709.02	885.13
709.11	921.48
709.20	933.67
709.29	923.74
709.39	924.25
709.48	942.78
709.57	994.19
709.66	1037.60
709.75	1040.37
709.84	1057.16
709.93	1066.17
710.02	1097.71
710.11	1095.56
710.20	1139.18
710.29	1117.06
710.38	1170.62
710.47	1224.17
710.56	1265.44
710.65	1283.26
710.74	1329.85
710.83	1372.86
710.92	1447.50
711.01	1477.30
711.10	1527.78
711.19	1572.53
711.28	1670.94
711.38	1711.49
711.47	1777.53
711.56	1801.19
711.65	1890.89
711.74	1976.09
711.83	2055.24
711.92	2114.94
712.01	2195.63
712.10	2302.53
712.19	2323.93
712.28	2421.62
712.37	2498.93
712.46	2603.89
712.55	2656.01
712.64	2715.20
712.73	2775.20
712.82	2875.25
712.91	3007.85
713.00	3041.13
713.09	3098.99
713.18	3123.97
713.27	3168.41
713.36	3116.60
713.45	3186.33
713.54	3162.06
713.63	3273.88
713.72	3405.06
713.81	3484.00
713.90	3561.72
713.99	3696.79
714.08	3807.69
714.17	4027.43
714.26	4080.99
714.35	4281.18
714.44	4318.35
714.53	4417.98
714.62	4503.18
714.71	4741.56
714.80	4965.91
714.89	5291.13
714.98	5614.20
715.07	6245.59
715.16	6753.59
715.25	7546.76
715.34	7933.11
715.43	8073.71
715.52	7671.69
715.61	6897.66
715.70	5903.68
715.79	4802.18
715.88	3623.37
715.97	2859.07
716.06	2391.72
716.15	2245.09
716.24	2084.42
716.33	2049.61
716.42	1992.47
716.51	1956.73
716.60	1742.21
716.69	1629.16
716.78	1378.28
716.87	1218.23
716.96	1057.16
717.05	991.01
717.13	947.08
717.22	952.72
717.31	947.70
717.40	957.32
717.49	948.62
717.58	949.13
717.67	932.54
717.76	927.73
717.85	946.88
717.94	905.61
718.03	890.66
718.12	869.67
718.21	859.33
718.30	806.49
718.39	763.59
718.48	735.32
718.57	758.57
718.66	750.38
718.75	763.99
718.84	796.35
718.93	771.37
719.02	794.20
719.10	792.05
719.19	801.47
719.28	811.81
719.37	870.69
719.46	905.10
719.55	972.27
719.64	989.27
719.73	996.75
719.82	1009.75
719.91	1053.37
720.00	1086.35
720.09	1112.25
720.18	1174.51
720.27	1252.54
720.36	1305.17
720.44	1360.47
720.53	1391.80
720.62	1449.14
720.71	1465.22
720.80	1534.95
720.89	1592.40
720.98	1716.81
721.07	1773.64
721.16	1891.09
721.25	1892.53
721.34	1990.73
721.43	1984.79
721.52	2113.71
721.60	2197.78
721.69	2372.78
721.78	2460.22
721.87	2618.02
721.96	2702.09
722.05	2848.11
722.14	2899.41
722.23	3033.14
722.32	3173.84
722.41	3416.32
722.50	3575.34
722.58	3746.14
722.67	3790.69
722.76	4018.63
722.85	4099.42
722.94	4250.25
723.03	4263.36
723.12	4421.67
723.21	4411.02
723.30	4540.55
723.38	4463.65
723.47	4437.44
723.56	4541.88
723.65	4716.06
723.74	4766.34
723.83	4837.40
723.92	4699.78
724.01	4633.32
724.10	4354.49
724.18	4193.11
724.27	3945.41
724.36	3957.70
724.45	3877.01
724.54	3957.09
724.63	4020.67
724.72	4109.66
724.81	4306.67
724.89	4419.41
724.98	4526.42
725.07	4683.70
725.16	4762.55
725.25	4743.71
725.34	4541.47
725.43	4467.23
725.52	4311.79
725.60	4293.77
725.69	4259.67
725.78	4476.45
725.87	4764.19
725.96	5066.37
726.05	5172.45
726.14	5132.82
726.22	4779.55
726.31	4492.32
726.40	4114.37
726.49	3810.25
726.58	3590.81
726.67	3615.48
726.76	3642.21
726.84	3887.86
726.93	3997.74
727.02	4247.08
727.11	4545.98
727.20	4777.09
727.29	4791.02
727.38	4635.88
727.46	4294.08
727.55	3864.21
727.64	3313.41
727.73	2750.73
727.82	2363.36
727.91	2162.76
727.99	2042.75
728.08	2095.69
728.17	2121.08
728.26	2216.62
728.35	2219.28
728.44	2238.94
728.52	2232.08
728.61	2295.36
728.70	2190.92
728.79	2201.77
728.88	2143.61
728.97	2150.06
729.05	2044.18
729.14	1957.76
729.23	1824.33
729.32	1730.12
729.41	1633.56
729.49	1553.49
729.58	1503.52
729.67	1547.14
729.76	1528.40
729.85	1567.72
729.94	1527.17
730.02	1566.49
730.11	1585.74
730.20	1651.28
730.29	1634.79
730.38	1700.43
730.46	1738.83
730.55	1851.36
730.64	1897.14
730.73	1924.27
730.82	1930.93
730.90	2013.15
730.99	2054.73
731.08	2066.71
731.17	2089.03
731.26	2210.58
731.34	2377.59
731.43	2448.35
731.52	2481.73
731.61	2524.43
731.70	2612.29
731.78	2706.70
731.87	2729.12
731.96	2871.66
732.05	3054.95
732.13	3231.18
732.22	3358.77
732.31	3479.40
732.40	3542.17
732.49	3660.85
732.57	3685.73
732.66	3926.57
732.75	4260.39
732.84	4359.72
732.93	4523.04
733.01	4830.75
733.10	4933.56
733.19	5163.44
733.28	5203.89
733.36	5456.92
733.45	5745.17
733.54	6182.72
733.63	6394.78
733.71	6589.34
733.80	6820.15
733.89	7128.57
733.98	7265.27
734.07	7566.73
734.15	7690.63
734.24	7927.48
734.33	8115.08
734.42	8235.09
734.50	7983.08
734.59	8031.21
734.68	7951.24
734.77	8135.25
734.85	8188.80
734.94	8551.81
735.03	8348.03
735.12	8375.07
735.20	7882.12
735.29	7598.27
735.38	6963.40
735.47	6634.50
735.55	6328.02
735.64	6350.96
735.73	6321.26
735.82	6522.78
735.90	6722.36
735.99	6942.61
736.08	7153.35
736.17	7364.70
736.25	7532.84
736.34	7814.23
736.43	7896.97
736.51	7910.48
736.60	7606.98
736.69	7346.88
736.78	7131.95
736.86	7086.38
736.95	7007.74
737.04	7221.96
737.13	7807.68
737.21	8482.89
737.30	8657.07
737.39	8687.59
737.47	8242.05
737.56	7645.58
737.65	6919.47
737.74	6291.16
737.82	5682.81
737.91	5610.82
738.00	5653.52
738.08	5926.31
738.17	6125.58
738.26	6536.60
738.35	6945.17
738.43	7591.92
738.52	7959.94
738.61	8113.03
738.69	7774.40
738.78	7096.42
738.87	6121.17
738.96	5196.31
739.04	4109.45
739.13	3332.25
739.22	2901.05
739.30	2844.63
739.39	2780.73
739.48	2860.71
739.56	2902.07
739.65	3034.17
739.74	3040.41
739.82	3073.18
739.91	3047.28
740.00	3077.69
740.09	3030.38
740.17	3030.58
740.26	2975.08
740.35	2993.41
740.43	2859.78
740.52	2789.54
740.61	2640.96
740.69	2502.21
740.78	2331.61
740.87	2199.42
740.95	2179.04
741.04	2185.49
741.13	2188.36
741.21	2253.89
741.30	2261.98
741.39	2314.61
741.47	2358.75
741.56	2527.60
741.65	2636.66
741.73	2819.85
741.82	3050.45
741.91	3353.34
741.99	3569.92
742.08	3781.27
742.17	3695.87
742.25	3695.56
742.34	3590.81
742.43	3507.45
742.51	3357.75
742.60	3289.14
742.69	3267.43
742.77	3451.85
742.86	3575.04
742.95	3673.65
743.03	3700.68
743.12	3863.19
743.21	3936.91
743.29	4096.14
743.38	4150.41
743.47	4444.91
743.55	4716.16
743.64	4995.51
743.73	5241.78
743.81	5371.92
743.90	5540.27
743.98	5593.92
744.07	5768.51
744.16	6147.39
744.24	6543.87
744.33	6779.60
744.42	7036.51
744.50	7395.93
744.59	7653.57
744.68	7928.10
744.76	7911.20
744.85	8162.08
744.93	8564.71
745.02	9168.55
745.11	9589.20
745.19	10211.38
745.28	10368.25
745.37	10680.36
745.45	10978.03
745.54	11399.20
745.62	11774.80
745.71	11918.15
745.80	12135.85
745.88	12739.08
745.97	12724.03
746.05	12739.49
746.14	12485.13
746.23	12614.87
746.31	12774.72
746.40	13243.91
746.49	13463.76
746.57	14106.51
746.66	14140.30
746.74	13991.11
746.83	13353.99
746.92	12779.02
747.00	11823.95
747.09	11198.29
747.17	10696.03
747.26	10519.29
747.35	10421.81
747.43	10680.36
747.52	10959.19
747.60	11412.92
747.69	11533.96
747.78	12002.43
747.86	12209.99
747.95	12749.53
748.03	12882.24
748.12	13354.09
748.20	13013.92
748.29	12738.98
748.38	12361.23
748.46	12002.84
748.55	11696.56
748.63	11818.32
748.72	12067.25
748.81	13023.55
748.89	14126.89
748.98	15017.35
749.06	14980.99
749.15	14653.01
749.23	13547.21
749.32	12765.30
749.41	11442.00
749.49	10445.56
749.58	9805.37
749.66	9859.84
749.75	9984.87
749.83	10591.89
749.92	10991.86
750.01	11850.26
750.09	12597.77
750.18	13685.65
750.26	14457.12
750.35	14965.22
750.43	14214.13
750.52	13352.35
750.60	11915.18
750.69	10665.72
750.78	9078.85
750.86	8136.68
750.95	7781.36
751.03	7632.98
751.12	7298.45
751.20	7023.61
751.29	6483.15
751.37	6006.59
751.46	5471.05
751.55	5020.39
751.63	4644.59
751.72	4423.41
751.80	4225.68
751.89	4137.82
751.97	3990.67
752.06	3892.47
752.14	3785.88
752.23	3651.94
752.31	3444.48
752.40	3256.68
752.48	2976.82
752.57	2667.58
752.65	2369.40
752.74	2146.99
752.83	1997.18
752.91	1951.51
753.00	1949.97
753.08	1895.29
753.17	1932.36
753.25	1923.86
753.34	1914.24
753.42	1948.23
753.51	2004.76
753.59	2086.16
753.68	2120.47
753.76	2261.47
753.85	2354.86
753.93	2482.45
754.02	2527.91
754.10	2598.16
754.19	2563.24
754.27	2639.63
754.36	2688.06
754.44	2745.40
754.53	2826.09
754.61	3008.36
754.70	3177.94
754.78	3476.32
754.87	3503.05
754.95	3604.94
755.04	3618.66
755.12	3814.55
755.21	3825.61
755.29	4036.65
755.38	4142.12
755.46	4465.29
755.55	4729.17
755.63	5008.41
755.72	5161.70
755.80	5321.85
755.89	5379.60
755.97	5456.92
756.06	5698.99
756.14	6039.05
756.23	6415.98
756.31	6739.25
756.40	7005.79
756.48	7473.04
756.57	7690.12
756.65	7910.79
756.74	7912.63
756.82	8400.77
756.91	8483.30
756.99	9111.62
757.08	9755.09
757.16	10319.61
757.25	10559.84
757.33	11044.80
757.41	11264.65
757.50	11616.08
757.58	11948.67
757.67	12302.56
757.75	12482.78
757.84	12965.59
757.92	13215.64
758.01	13588.78
758.09	13274.01
758.18	13147.65
758.26	13159.63
758.35	13501.13
758.43	13671.22
758.51	14401.73
758.60	14842.55
758.68	15476.70
758.77	15229.21
758.85	15082.98
758.94	14324.93
759.02	13418.19
759.11	12590.60
759.19	12088.85
759.27	11612.70
759.36	11675.98
759.44	11798.14
759.53	12383.04
759.61	12408.44
759.70	12794.99
759.78	13200.39
759.87	13587.04
759.95	13728.05
760.03	14259.08
760.12	14432.65
760.20	15124.66
760.29	15135.10
760.37	15291.16
760.46	15004.96
760.54	14973.31
760.62	15027.69
760.71	15407.28
760.79	15959.51
760.88	16852.73
760.96	17744.73
761.05	18912.38
761.13	19086.45
761.21	18785.30
761.30	17033.67
761.38	15386.70
761.47	13562.57
761.55	11816.88
761.64	10219.06
761.72	9337.61
761.80	8945.32
761.89	9060.93
761.97	9299.52
762.06	9938.49
762.14	10385.76
762.22	11253.08
762.31	12213.57
762.39	13557.86
762.48	14337.32
762.56	14467.16
762.64	13561.65
762.73	12357.55
762.81	10472.80
762.90	8655.43
762.98	6594.05
763.06	5026.12
763.15	4266.84
763.23	4028.97
763.32	3885.92
763.40	3902.40
763.48	3927.29
763.57	4055.90
763.65	4084.57
763.74	4212.98
763.82	4215.23
763.90	4203.97
763.99	4165.16
764.07	4131.98
764.15	4026.51
764.24	3984.02
764.32	3874.76
764.41	3825.91
764.49	3706.11
764.57	3608.11
764.66	3394.71
764.74	3154.90
764.82	2823.02
764.91	2579.83
764.99	2228.19
765.08	2064.66
765.16	1862.01
765.24	1837.44
765.33	1811.12
765.41	1810.51
765.49	1788.90
765.58	1743.23
765.66	1751.93
765.74	1728.49
765.83	1788.70
765.91	1828.32
766.00	1894.78
766.08	1959.39
766.16	2012.74
766.25	2120.36
766.33	2098.66
766.41	2093.95
766.50	2073.88
766.58	2154.05
766.66	2164.29
766.75	2196.65
766.83	2220.41
766.91	2334.99
767.00	2443.53
767.08	2627.13
767.16	2725.13
767.25	2835.00
767.33	2759.84
767.41	2815.04
767.50	2840.23
767.58	2973.14
767.66	2971.60
767.75	3166.47
767.83	3283.82
767.91	3524.76
768.00	3704.06
768.08	3888.38
768.16	3957.09
768.25	4012.69
768.33	4010.13
768.41	4098.91
768.50	4209.80
768.58	4576.08
768.66	4767.26
768.75	4990.70
768.83	5191.70
768.91	5484.46
769.00	5603.75
769.08	5774.45
769.16	5787.87
769.25	6012.63
769.33	6241.18
769.41	6492.06
769.50	6887.11
769.58	7451.64
769.66	7656.64
769.74	7968.65
769.83	8109.34
769.91	8476.13
769.99	8536.86
770.08	8880.50
770.16	9072.71
770.24	9463.15
770.33	9607.64
770.41	9940.12
770.49	10081.64
770.58	9918.62
770.66	9514.86
770.74	9577.53
770.82	9656.07
770.91	9893.23
770.99	9940.74
771.07	10538.34
771.16	11111.77
771.24	11457.77
771.32	11193.17
771.40	10926.43
771.49	10266.06
771.57	9524.08
771.65	8784.66
771.74	8263.96
771.82	7742.14
771.90	7649.47
771.98	7646.71
772.07	8122.35
772.15	8092.86
772.23	8211.43
772.31	8482.99
772.40	8863.61
772.48	8965.39
772.56	9137.22
772.65	9210.43
772.73	9514.25
772.81	9702.56
772.89	9977.81
772.98	9758.78
773.06	9465.92
773.14	9134.04
773.22	8930.88
773.31	8681.54
773.39	8629.22
773.47	8677.14
773.55	9522.85
773.64	10353.40
773.72	11097.23
773.80	11680.28
773.88	11475.18
773.97	10838.87
774.05	10225.20
774.13	9124.11
774.21	8146.10
774.30	7212.74
774.38	6571.83
774.46	6457.04
774.54	6584.32
774.63	6830.18
774.71	7178.13
774.79	7584.14
774.87	8355.51
774.96	9042.40
775.04	10160.38
775.12	10897.96
775.20	11226.45
775.29	10666.54
775.37	9856.16
775.45	8638.54
775.53	7059.35
775.61	5437.36
775.70	3989.24
775.78	3198.82
775.86	2805.10
775.94	2640.24
776.03	2615.05
776.11	2639.52
776.19	2718.27
776.27	2750.63
776.36	2857.12
776.44	2929.72
776.52	3079.63
776.60	3056.90
776.68	3121.21
776.77	3051.78
776.85	3032.53
776.93	2898.80
777.01	2779.40
777.09	2618.12
777.18	2510.60
777.26	2365.51
777.34	2326.39
777.42	2123.74
777.50	1955.50
777.59	1707.19
777.67	1540.38
777.75	1309.78
777.83	1175.02
777.91	989.78
778.00	916.47
778.08	910.32
778.16	922.81
778.24	930.90
778.32	928.86
778.41	939.61
778.49	1014.67
778.57	1044.98
778.65	1168.37
778.73	1204.92
778.82	1275.68
778.90	1258.78
778.98	1294.01
779.06	1207.89
779.14	1172.56
779.22	1112.25
779.31	1086.35
779.39	1042.52
779.47	1011.59
779.55	1001.46
779.63	1010.16
779.72	1003.20
779.80	1033.81
779.88	1037.50
779.96	1079.18
780.04	1117.58
780.12	1160.58
780.21	1167.24
780.29	1186.08
780.37	1251.62
780.45	1256.84
780.53	1319.20
780.61	1339.06
780.70	1397.02
780.78	1469.01
780.86	1496.35
780.94	1547.24
781.02	1513.14
781.10	1538.74
781.18	1544.27
781.27	1529.83
781.35	1492.35
781.43	1453.24
781.51	1399.68
781.59	1436.34
781.67	1438.39
781.75	1376.54
781.84	1347.15
781.92	1327.49
782.00	1285.92
782.08	1339.58
782.16	1372.14
782.24	1561.78
782.32	1751.53
782.41	2051.25
782.49	2473.23
782.57	3035.91
782.65	3587.22
782.73	4158.20
782.81	4489.97
782.89	4427.81
782.98	4147.75
783.06	3780.35
783.14	3287.09
783.22	2652.53
783.30	2052.37
783.38	1749.58
783.46	1522.26
783.54	1454.88
783.63	1352.99
783.71	1370.09
783.79	1326.98
783.87	1354.01
783.95	1384.02
784.03	1373.37
784.11	1374.80
784.19	1404.91
784.27	1397.53
784.36	1404.80
784.44	1395.90
784.52	1415.86
784.60	1402.96
784.68	1425.49
784.76	1406.65
784.84	1348.08
784.92	1327.60
785.00	1394.46
785.08	1388.42
785.17	1433.89
785.25	1434.19
785.33	1502.29
785.41	1455.39
785.49	1397.12
785.57	1393.75
785.65	1388.32
785.73	1383.20
785.81	1392.93
785.89	1405.42
785.98	1468.50
786.06	1467.68
786.14	1494.71
786.22	1505.15
786.30	1479.86
786.38	1470.34
786.46	1472.39
786.54	1464.81
786.62	1516.62
786.70	1551.03
786.78	1598.34
786.86	1581.54
786.94	1565.47
787.03	1547.14
787.11	1505.15
787.19	1471.26
787.27	1442.90
787.35	1434.70
787.43	1487.34
787.51	1496.96
787.59	1608.68
787.67	1683.64
787.75	1798.83
787.83	1841.53
787.91	1899.08
787.99	1919.97
788.07	1912.70
788.15	1981.41
788.23	2020.01
788.32	2062.71
788.40	2107.05
788.48	2145.86
788.56	2066.81
788.64	1922.22
788.72	1762.48
788.80	1552.57
788.88	1392.11
788.96	1269.33
789.04	1178.91
789.12	1104.37
789.20	1105.80
789.28	1101.81
789.36	1144.00
789.44	1163.66
789.52	1159.56
789.60	1081.84
789.68	1027.98
789.76	931.42
789.84	835.98
789.92	703.89
790.00	632.41
790.08	579.47
790.16	589.51
790.25	544.86
790.33	507.79
790.41	523.36
790.49	520.39
790.57	504.11
790.65	498.78
790.73	496.02
790.81	495.71
790.89	522.74
790.97	540.15
791.05	532.06
791.13	542.51
791.21	532.57
791.29	520.70
791.37	478.92
791.45	464.27
791.53	379.28
791.61	364.03
791.69	346.52
791.77	306.58
791.85	303.20
791.93	291.84
792.01	305.04
792.09	298.39
792.17	274.12
792.25	275.04
792.33	296.44
792.41	273.71
792.49	338.22
792.57	327.98
792.65	332.28
792.73	329.72
792.81	312.21
792.89	296.55
792.97	289.17
793.05	284.57
793.13	270.13
793.21	281.80
793.29	293.47
793.37	301.87
793.45	287.13
793.53	295.93
793.61	333.92
793.69	321.63
793.77	330.54
793.85	330.34
793.93	354.81
794.01	335.97
794.09	354.09
794.16	352.46
794.24	353.48
794.32	337.51
794.40	360.24
794.48	356.86
794.56	389.93
794.64	391.26
794.72	371.30
794.80	399.15
794.88	421.06
794.96	449.22
795.04	445.74
795.12	454.75
795.20	460.59
795.28	480.56
795.36	485.47
795.44	506.77
795.52	494.07
795.60	492.33
795.68	504.01
795.76	542.20
795.84	582.44
795.92	598.62
796.00	577.83
796.07	608.04
796.15	619.41
796.23	625.14
796.31	673.17
796.39	650.95
796.47	674.81
796.55	712.28
796.63	756.52
796.71	768.71
796.79	790.31
796.87	820.93
796.95	847.76
797.03	877.66
797.11	900.49
797.19	923.94
797.27	976.16
797.34	1049.28
797.42	1084.30
797.50	1128.64
797.58	1174.10
797.66	1168.98
797.74	1210.76
797.82	1182.70
797.90	1234.11
797.98	1254.79
798.06	1292.58
798.14	1333.84
798.22	1400.91
798.29	1476.38
798.37	1496.96
798.45	1547.85
798.53	1585.44
798.61	1579.70
798.69	1612.57
798.77	1668.07
798.85	1713.13
798.93	1809.79
799.01	1890.79
799.09	2007.42
799.16	2247.44
799.24	2497.60
799.32	2811.66
799.40	2971.60
799.48	3123.66
799.56	3175.58
799.64	3008.98
799.72	2761.38
799.80	2404.83
799.88	2033.53
799.95	1649.54
800.03	1351.76
800.11	1174.00
800.19	1130.27
800.27	1074.47
800.35	991.93
800.43	971.25
800.51	980.36
800.58	942.78
800.66	917.08
800.74	871.00
800.82	828.20
800.90	764.40
800.98	755.50
801.06	755.80
801.14	751.40
801.21	766.35
801.29	781.20
801.37	801.88
801.45	860.04
801.53	860.45
801.61	890.15
801.69	931.83
801.77	956.71
801.84	929.88
801.92	918.00
802.00	913.91
802.08	885.75
802.16	830.55
802.24	802.60
802.32	758.36
802.39	767.27
802.47	758.26
802.55	788.57
802.63	839.56
802.71	866.19
802.79	929.98
802.87	998.79
802.94	993.88
803.02	963.98
803.10	942.27
803.18	897.93
803.26	827.58
803.34	787.75
803.41	757.44
803.49	756.01
803.57	732.56
803.65	718.33
803.73	751.50
803.81	739.21
803.88	721.29
803.96	751.91
804.04	787.65
804.12	781.50
804.20	798.71
804.28	814.78
804.35	812.63
804.43	875.92
804.51	885.13
804.59	872.64
804.67	827.38
804.75	782.84
804.82	743.21
804.90	674.60
804.98	580.29
805.06	545.48
805.14	552.54
805.21	551.01
805.29	551.93
805.37	572.10
805.45	583.57
805.53	620.43
805.60	631.29
805.68	609.99
805.76	562.88
805.84	614.60
805.92	595.96
805.99	586.85
806.07	598.62
806.15	590.63
806.23	576.40
806.31	590.63
806.38	557.15
806.46	562.88
806.54	507.18
806.62	520.59
806.70	487.62
806.77	470.62
806.85	412.36
806.93	444.51
807.01	433.55
807.09	437.65
807.16	428.54
807.24	432.63
807.32	442.36
807.40	441.95
807.48	420.76
807.55	452.50
807.63	445.95
807.71	458.74
807.79	470.42
807.86	482.71
807.94	462.64
808.02	487.31
808.10	481.07
808.17	492.02
808.25	494.89
808.33	492.02
808.41	497.45
808.49	519.98
808.56	556.33
808.64	546.81
808.72	574.25
808.80	647.36
808.87	636.00
808.95	687.71
809.03	712.69
809.11	735.73
809.18	735.12
809.26	750.79
809.34	738.29
809.42	711.77
809.49	708.29
809.57	744.13
809.65	736.65
809.73	714.23
809.80	755.70
809.88	744.13
809.96	794.30
810.04	760.31
810.11	816.83
810.19	828.51
810.27	855.54
810.35	873.36
810.42	921.59
810.50	959.37
810.58	1011.59
810.66	1034.33
810.73	1031.56
810.81	1016.10
810.89	1051.94
810.96	1077.13
811.04	1065.46
811.12	1108.26
811.20	1173.49
811.27	1261.55
811.35	1373.88
811.43	1582.26
811.50	1833.96
811.58	2049.40
811.66	2144.53
811.74	2222.56
811.81	2085.65
811.89	1959.19
811.97	1690.80
812.05	1394.67
812.12	1082.25
812.20	833.73
812.28	613.06
812.35	471.44
812.43	399.66
812.51	331.16
812.58	328.19
812.66	350.10
812.74	316.62
812.82	332.79
812.89	329.72
812.97	342.01
813.05	315.80
813.12	333.51
813.20	327.98
813.28	289.58
813.35	288.25
813.43	301.05
813.51	299.93
813.59	303.71
813.66	298.18
813.74	281.29
813.82	309.65
813.89	297.67
813.97	298.90
814.05	289.07
814.12	293.37
814.20	291.94
814.28	309.04
814.35	321.12
814.43	331.26
814.51	343.34
814.58	328.70
814.66	348.46
814.74	346.82
814.81	325.83
814.89	316.92
814.97	335.76
815.04	329.83
815.12	311.39
815.20	323.48
815.27	294.50
815.35	329.72
815.43	343.85
815.50	313.65
815.58	336.69
815.66	325.01
815.73	332.18
815.81	349.59
815.89	320.30
815.96	340.58
816.04	340.07
816.12	327.37
816.19	294.50
816.27	299.52
816.35	282.11
816.42	293.58
816.50	295.21
816.58	309.86
816.65	325.73
816.73	302.38
816.80	311.09
816.88	322.35
816.96	338.43
817.03	339.04
817.11	333.72
817.19	335.35
817.26	339.35
817.34	358.29
817.42	368.84
817.49	368.22
817.57	371.71
817.64	362.29
817.72	400.38
817.80	364.44
817.87	352.05
817.95	360.44
818.03	376.93
818.10	361.57
818.18	391.16
818.25	436.22
818.33	508.92
818.41	534.72
818.48	592.58
818.56	616.95
818.63	650.03
818.71	649.82
818.79	620.53
818.86	561.25
818.94	505.95
819.02	475.13
819.09	411.03
819.17	379.80
819.24	328.60
819.32	315.08
819.40	313.03
819.47	311.91
819.55	329.52
819.62	301.26
819.70	324.19
819.78	315.90
819.85	315.28
819.93	340.27
820.00	347.54
820.08	342.52
820.16	352.66
820.23	353.27
820.31	352.56
820.38	339.45
820.46	352.66
820.53	296.96
820.61	319.89
820.69	305.25
820.76	281.90
820.84	294.60
820.91	261.63
820.99	275.25
821.07	280.26
821.14	284.46
821.22	305.97
821.29	310.16
821.37	367.51
821.44	400.89
821.52	430.59
821.60	476.46
821.67	465.91
821.75	459.87
821.82	443.90
821.90	403.04
821.97	378.46
822.05	358.19
822.12	353.99
822.20	370.48
822.28	351.12
822.35	339.66
822.43	348.97
822.50	297.67
822.58	280.26
822.65	254.26
822.73	246.78
822.80	233.98
822.88	216.47
822.96	212.27
823.03	229.58
823.11	217.70
823.18	230.09
823.26	244.43
823.33	261.94
823.41	254.26
823.48	260.19
823.56	280.37
823.63	246.99
823.71	262.75
823.79	274.84
823.86	258.76
823.94	271.15
824.01	282.93
824.09	320.71
824.16	322.25
824.24	325.42
824.31	332.59
824.39	347.75
824.46	358.29
824.54	317.13
824.61	319.18
824.69	290.91
824.76	282.93
824.84	301.26
824.91	295.42
824.99	311.09
825.06	307.81
825.14	297.88
825.21	302.69
825.29	310.16
825.36	289.38
825.44	300.33
825.51	281.39
825.59	294.60
825.67	294.50
825.74	320.92
825.82	306.79
825.89	319.07
825.97	350.31
826.04	346.93
826.12	358.80
826.19	355.32
826.27	364.44
826.34	379.90
826.41	350.92
826.49	359.83
826.56	340.07
826.64	320.92
826.71	353.79
826.79	319.48
826.86	326.65
826.94	334.95
827.01	344.98
827.09	353.27
827.16	326.45
827.24	349.28
827.31	364.03
827.39	358.91
827.46	376.11
827.54	371.71
827.61	403.76
827.69	422.50
827.76	460.79
827.84	497.35
827.91	519.98
827.99	557.97
828.06	587.26
828.14	635.08
828.21	626.78
828.28	603.33
828.36	525.10
828.43	492.64
828.51	416.97
828.58	371.81
828.66	295.32
828.73	304.02
828.81	281.19
828.88	280.98
828.96	279.65
829.03	309.35
829.11	291.02
829.18	308.12
829.25	308.01
829.33	323.89
829.40	313.85
829.48	349.90
829.55	329.93
829.63	329.21
829.70	305.86
829.78	312.93
829.85	318.97
829.92	328.60
830.00	312.32
830.07	319.48
830.15	302.59
830.22	306.48
830.30	326.75
830.37	299.72
830.44	319.07
830.52	299.00
830.59	295.01
830.67	289.69
830.74	301.15
830.82	350.20
830.89	312.21
830.96	326.96
831.04	336.38
831.11	336.69
831.19	352.76
831.26	348.77
831.34	318.05
831.41	346.72
831.48	327.98
831.56	349.28
831.63	332.49
831.71	346.93
831.78	332.69
831.85	341.91
831.93	365.77
832.00	353.68
832.08	350.61
832.15	343.03
832.22	336.38
832.30	340.07
832.37	309.14
832.45	307.71
832.52	308.73
832.59	301.87
832.67	313.03
832.74	305.56
832.82	299.21
832.89	310.98
832.96	325.32
833.04	332.49
833.11	349.59
833.19	336.79
833.26	357.47
833.33	352.66
833.41	338.84
833.48	351.12
833.56	309.96
833.63	329.72
833.70	306.89
833.78	314.98
833.85	323.78
833.92	317.95
834.00	304.53
834.07	298.90
834.15	274.84
834.22	273.71
834.29	247.60
834.37	264.70
834.44	254.87
834.51	252.21
834.59	258.04
834.66	273.20
834.73	289.28
834.81	296.34
834.88	333.61
834.96	327.88
835.03	357.37
835.10	328.29
835.18	321.22
835.25	310.78
835.32	314.26
835.40	276.07
835.47	302.69
835.54	294.50
835.62	302.28
835.69	309.55
835.76	295.21
835.84	292.76
835.91	310.98
835.98	308.63
836.06	320.61
836.13	311.50
836.21	309.76
836.28	290.91
836.35	326.14
836.43	321.74
836.50	359.73
836.57	358.29
836.65	328.49
836.72	342.01
836.79	316.92
836.87	334.95
836.94	338.32
837.01	350.00
837.08	360.65
837.16	326.34
837.23	350.00
837.30	313.44
837.38	349.38
837.45	361.57
837.52	351.33
837.60	365.77
837.67	352.56
837.74	379.80
837.82	399.76
837.89	381.43
837.96	402.32
838.04	426.80
838.11	431.71
838.18	384.61
838.26	385.22
838.33	396.69
838.40	406.21
838.47	398.64
838.55	394.03
838.62	389.63
838.69	407.85
838.77	412.26
838.84	406.73
838.91	425.98
838.99	441.23
839.06	417.27
839.13	433.04
839.20	440.93
839.28	484.45
839.35	454.65
839.42	512.71
839.50	557.56
839.57	581.42
839.64	649.10
839.71	689.35
839.79	762.77
839.86	792.87
839.93	879.70
840.01	868.03
840.08	862.09
840.15	819.09
840.22	770.55
840.30	697.64
840.37	619.41
840.44	530.83
840.51	453.93
840.59	365.46
840.66	322.56
840.73	292.45
840.81	287.13
840.88	297.26
840.95	257.84
841.02	247.19
841.10	258.35
841.17	245.35
841.24	257.22
841.31	230.40
841.39	253.13
841.46	258.86
841.53	270.33
841.60	294.09
841.68	272.89
841.75	295.83
841.82	267.77
841.89	278.01
841.97	249.03
842.04	268.28
842.11	281.08
842.18	288.46
842.26	292.04
842.33	287.94
842.40	316.10
842.47	302.18
842.55	307.91
842.62	297.26
842.69	306.58
842.76	323.58
842.84	316.82
842.91	349.79
842.98	364.95
843.05	381.54
843.12	397.51
843.20	395.67
843.27	393.01
843.34	392.49
843.41	364.64
843.49	369.97
843.56	365.97
843.63	373.96
843.70	391.16
843.77	372.42
843.85	410.52
843.92	410.72
843.99	416.45
844.06	433.45
844.14	462.64
844.21	478.61
844.28	464.99
844.35	499.70
844.42	513.63
844.50	516.19
844.57	490.69
844.64	484.14
844.71	517.52
844.78	534.32
844.86	539.64
844.93	555.72
845.00	567.90
845.07	568.11
845.14	580.70
845.22	582.85
845.29	589.71
845.36	607.02
845.43	603.54
845.50	603.33
845.57	619.41
845.65	648.59
845.72	691.91
845.79	686.48
845.86	747.30
845.93	749.35
846.01	794.61
846.08	786.42
846.15	810.48
846.22	803.01
846.29	754.37
846.36	743.31
846.44	735.84
846.51	776.08
846.58	810.18
846.65	867.01
846.72	937.66
846.80	1002.28
846.87	1051.43
846.94	1113.69
847.01	1202.98
847.08	1255.20
847.15	1294.93
847.22	1299.23
847.30	1287.05
847.37	1302.41
847.44	1295.75
847.51	1271.79
847.58	1261.65
847.65	1207.79
847.73	1243.83
847.80	1221.82
847.87	1246.91
847.94	1240.05
848.01	1244.86
848.08	1280.70
848.15	1298.00
848.23	1272.51
848.30	1252.44
848.37	1213.11
848.44	1229.81
848.51	1240.66
848.58	1241.48
848.65	1228.17
848.73	1240.15
848.80	1255.40
848.87	1326.06
848.94	1323.19
849.01	1377.87
849.08	1397.53
849.15	1416.17
849.23	1446.28
849.30	1446.89
849.37	1397.94
849.44	1403.27
849.51	1310.70
849.58	1262.98
849.65	1209.74
849.72	1189.05
849.79	1142.56
849.87	1091.46
849.94	1115.53
850.01	1139.80
850.08	1145.12
850.15	1198.06
850.22	1227.86
850.29	1252.13
850.36	1288.27
850.44	1343.98
850.51	1360.06
850.58	1415.66
850.65	1424.36
850.72	1444.53
850.79	1418.94
850.86	1560.35
850.93	1571.51
851.00	1582.47
851.07	1579.80
851.15	1572.84
851.22	1524.41
851.29	1493.69
851.36	1427.64
851.43	1344.90
851.50	1296.36
851.57	1371.32
851.64	1383.61
851.71	1414.02
851.78	1429.69
851.85	1579.91
851.92	1671.14
852.00	1783.47
852.07	1819.42
852.14	1870.21
852.21	1941.37
852.28	1939.43
852.35	1867.44
852.42	1808.36
852.49	1678.21
852.56	1623.53
852.63	1567.72
852.70	1550.11
852.77	1524.41
852.84	1527.99
852.92	1510.79
852.99	1527.07
853.06	1536.39
853.13	1571.10
853.20	1640.83
853.27	1694.18
853.34	1773.13
853.41	1908.91
853.48	2002.30
853.55	2099.99
853.62	2144.33
853.69	2220.71
853.76	2279.18
853.83	2243.96
853.90	2211.09
853.97	2123.64
854.04	2040.08
854.11	1909.73
854.18	1727.77
854.26	1584.00
854.33	1379.10
854.40	1226.94
854.47	1088.70
854.54	964.80
854.61	889.02
854.68	830.45
854.75	782.02
854.82	785.09
854.89	784.88
854.96	864.86
855.03	895.58
855.10	1014.15
855.17	1166.01
855.24	1326.37
855.31	1494.61
855.38	1614.31
855.45	1602.95
855.52	1636.94
855.59	1585.23
855.66	1539.66
855.73	1429.28
855.80	1292.78
855.87	1129.66
855.94	1025.21
856.01	992.45
856.08	931.93
856.15	834.75
856.22	743.00
856.29	657.30
856.36	613.37
856.43	542.20
856.50	512.09
856.57	452.09
856.64	449.53
856.71	447.07
856.78	420.65
856.85	420.35
856.92	378.06
856.99	366.28
857.06	349.08
857.13	326.34
857.20	322.76
857.27	336.38
857.34	323.89
857.41	369.97
857.48	361.16
857.55	369.76
857.62	388.40
857.69	411.03
857.76	401.91
857.83	377.44
857.90	348.15
857.97	333.72
858.04	332.90
858.11	355.22
858.18	368.63
858.25	387.68
858.32	417.48
858.39	397.61
858.46	415.33
858.53	400.17
858.60	392.29
858.67	400.17
858.74	379.18
858.81	391.88
858.88	435.71
858.95	480.86
859.02	526.74
859.09	532.27
859.16	560.53
859.23	586.95
859.29	597.19
859.36	546.71
859.43	512.61
859.50	488.13
859.57	506.97
859.64	522.64
859.71	534.01
859.78	536.77
859.85	557.97
859.92	562.47
859.99	573.64
860.06	558.89
860.13	555.92
860.20	572.00
860.27	609.68
860.34	632.52
860.41	692.32
860.48	723.75
860.54	743.21
860.61	731.94
860.68	779.76
860.75	740.24
860.82	747.30
860.89	763.79
860.96	761.33
861.03	733.99
861.10	796.25
861.17	778.02
861.24	769.63
861.31	809.05
861.38	872.33
861.45	841.61
861.51	857.07
861.58	947.60
861.65	978.93
861.72	972.38
861.79	987.22
861.86	1030.33
861.93	1059.93
862.00	1057.26
862.07	1061.87
862.14	1052.14
862.21	1079.28
862.27	1144.20
862.34	1130.38
862.41	1183.01
862.48	1252.95
862.55	1267.90
862.62	1340.50
862.69	1377.87
862.76	1359.44
862.83	1429.07
862.90	1455.90
862.96	1465.94
863.03	1487.54
863.10	1471.36
863.17	1528.09
863.24	1552.36
863.31	1611.44
863.38	1637.86
863.45	1707.70
863.52	1768.63
863.58	1865.60
863.65	1878.50
863.72	1926.01
863.79	1894.58
863.86	1925.71
863.93	1926.32
864.00	1902.26
864.07	1893.35
864.13	1966.77
864.20	2087.08
864.27	2193.27
864.34	2231.98
864.41	2320.55
864.48	2387.73
864.55	2514.09
864.62	2549.00
864.68	2590.17
864.75	2603.69
864.82	2675.98
864.89	2706.08
864.96	2721.55
865.03	2757.79
865.10	2864.19
865.16	2933.61
865.23	3011.85
865.30	3058.13
865.37	3191.96
865.44	3295.18
865.51	3396.04
865.58	3439.26
865.64	3488.20
865.71	3567.25
865.78	3709.69
865.85	3732.22
865.92	3729.76
865.99	3686.65
866.05	3670.68
866.12	3609.34
866.19	3654.60
866.26	3639.14
866.33	3665.35
866.40	3573.60
866.46	3583.74
866.53	3613.03
866.60	3772.56
866.67	3872.20
866.74	3979.20
866.81	3987.91
866.87	4091.64
866.94	4052.93
867.01	4156.35
867.08	4052.93
867.15	4023.95
867.21	3887.66
867.28	3731.91
867.35	3555.99
867.42	3462.09
867.49	3364.10
867.56	3367.37
867.62	3244.49
867.69	3244.29
867.76	3195.45
867.83	3208.25
867.90	3278.29
867.96	3420.01
868.03	3486.56
868.10	3641.70
868.17	3520.87
868.24	3604.83
868.30	3626.85
868.37	3845.37
868.44	3877.73
868.51	3894.11
868.58	3930.77
868.64	4058.87
868.71	4180.31
868.78	4287.32
868.85	4289.16
868.92	4224.04
868.98	4154.00
869.05	4053.95
869.12	3913.67
869.19	3727.41
869.25	3441.92
869.32	3263.13
869.39	3154.49
869.46	3172.51
869.53	3130.32
869.59	3150.80
869.66	3164.42
869.73	3280.85
869.80	3468.03
869.86	3775.53
869.93	3902.10
870.00	4103.62
870.07	4150.62
870.14	4279.33
870.20	4228.65
870.27	4120.82
870.34	3928.52
870.41	3723.62
870.47	3448.06
870.54	3299.79
870.61	3083.11
870.68	3019.12
870.74	2929.82
870.81	2832.34
870.88	2776.94
870.95	2708.95
871.01	2648.23
871.08	2632.15
871.15	2586.07
871.22	2645.98
871.28	2670.65
871.35	2678.74
871.42	2765.58
871.49	2870.02
871.55	2954.40
871.62	3093.35
871.69	3249.92
871.76	3472.54
871.82	3593.47
871.89	3771.44
871.96	3766.21
872.02	3758.94
872.09	3608.73
872.16	3492.91
872.23	3222.07
872.29	2983.48
872.36	2655.29
872.43	2434.73
872.50	2215.70
872.56	2066.30
872.63	1865.90
872.70	1738.11
872.76	1558.61
872.83	1468.60
872.90	1349.00
872.97	1313.06
873.03	1254.28
873.10	1264.62
873.17	1219.46
873.23	1186.49
873.30	1149.63
873.37	1182.29
873.44	1172.97
873.50	1163.04
873.57	1128.74
873.64	1136.11
873.70	1104.88
873.77	1141.54
873.84	1117.99
873.91	1152.39
873.97	1128.94
874.04	1185.98
874.11	1179.43
874.17	1202.77
874.24	1203.80
874.31	1201.34
874.37	1149.12
874.44	1122.59
874.51	1063.51
874.57	1007.29
874.64	911.04
874.71	898.96
874.77	809.56
874.84	772.49
874.91	723.96
874.98	690.58
875.04	661.19
875.11	607.63
875.18	553.67
875.24	526.94
875.31	495.30
875.38	482.60
875.44	435.71
875.51	444.41
875.58	445.54
875.64	456.59
875.71	476.36
875.78	467.76
875.84	457.62
875.91	481.78
875.98	450.76
876.04	446.15
876.11	454.85
876.18	416.97
876.24	424.75
876.31	421.27
876.37	475.85
876.44	478.82
876.51	455.26
876.57	476.66
876.64	449.02
876.71	487.62
876.77	457.52
876.84	458.54
876.91	429.25
876.97	404.58
877.04	416.66
877.11	427.41
877.17	443.49
877.24	488.44
877.31	522.95
877.37	531.55
877.44	540.66
877.50	533.50
877.57	530.42
877.64	535.44
877.70	521.21
877.77	474.92
877.84	484.24
877.90	524.38
877.97	507.90
878.03	548.14
878.10	568.62
878.17	556.02
878.23	559.81
878.30	562.88
878.37	573.33
878.43	548.24
878.50	565.75
878.56	576.09
878.63	583.88
878.70	609.68
878.76	634.26
878.83	678.08
878.89	682.38
878.96	698.46
879.03	716.69
879.09	710.95
879.16	687.71
879.22	704.30
879.29	707.37
879.36	724.88
879.42	716.38
879.49	738.70
879.55	752.73
879.62	770.04
879.69	764.92
879.75	783.04
879.82	796.76
879.88	827.58
879.95	831.68
880.02	824.10
880.08	870.39
880.15	921.69
880.21	945.75
880.28	948.93
880.34	962.75
880.41	976.27
880.48	973.09
880.54	989.37
880.61	974.73
880.67	1018.35
880.74	1065.87
880.80	1064.94
880.87	1092.18
880.94	1087.37
881.00	1122.59
881.07	1164.27
881.13	1184.85
881.20	1197.96
881.26	1188.64
881.33	1206.05
881.40	1277.32
881.46	1257.86
881.53	1289.20
881.59	1295.95
881.66	1305.27
881.72	1343.47
881.79	1383.30
881.85	1423.03
881.92	1449.76
881.99	1492.25
882.05	1561.47
882.12	1626.39
882.18	1644.52
882.25	1670.02
882.31	1695.92
882.38	1686.91
882.44	1672.68
882.51	1746.51
882.57	1768.32
882.64	1758.49
882.71	1786.96
882.77	1827.40
882.84	1873.69
882.90	1981.72
882.97	1964.31
883.03	2092.31
883.10	2111.35
883.16	2181.60
883.23	2206.17
883.29	2285.64
883.36	2269.66
883.42	2295.98
883.49	2296.80
883.55	2366.74
883.62	2399.50
883.68	2404.62
883.75	2384.65
883.81	2465.14
883.88	2522.79
883.94	2554.33
884.01	2614.95
884.07	2650.28
884.14	2677.00
884.20	2759.33
884.27	2825.58
884.34	2891.63
884.40	2921.02
884.47	2982.25
884.53	3001.71
884.60	3066.32
884.66	3079.12
884.73	3104.52
884.79	3056.80
884.86	3022.70
884.92	2999.56
884.98	2994.54
885.05	3007.75
885.11	3024.13
885.18	2978.77
885.24	3023.11
885.31	2969.86
885.37	2995.97
885.44	3049.02
885.50	3146.50
885.57	3184.69
885.63	3224.73
885.70	3255.25
885.76	3265.38
885.83	3305.93
885.89	3320.78
885.96	3297.02
886.02	3262.21
886.09	3176.19
886.15	3091.61
886.22	2979.28
886.28	2871.76
886.35	2792.71
886.41	2747.35
886.47	2607.47
886.54	2577.57
886.60	2465.14
886.67	2448.04
886.73	2352.71
886.80	2387.93
886.86	2343.39
886.93	2361.41
886.99	2357.72
887.06	2400.42
887.12	2418.75
887.19	2422.54
887.25	2465.75
887.31	2501.90
887.38	2489.72
887.44	2563.65
887.51	2526.68
887.57	2561.91
887.64	2595.80
887.70	2685.91
887.77	2721.03
887.83	2818.72
887.89	2832.65
887.96	2878.42
888.02	2872.28
888.09	2826.30
888.15	2767.11
888.22	2711.10
888.28	2636.15
888.34	2587.81
888.41	2488.08
888.47	2409.44
888.54	2341.14
888.60	2365.30
888.67	2316.87
888.73	2367.66
888.79	2382.91
888.86	2460.12
888.92	2510.60
888.99	2677.10
889.05	2746.02
889.11	2838.08
889.18	2898.90
889.24	2959.31
889.31	2958.60
889.37	3012.66
889.44	2914.77
889.50	2816.06
889.56	2675.47
>>>>>End Processed Spectral Data<<<<<
